Folder: xray_python/xrd

File: CuOCuCl2.xy
5.000	3595.000
5.290	3565.000
5.580	3345.000
5.870	3160.000
6.160	3145.000
6.450	3335.000
6.740	3445.000
7.030	3255.000
7.320	3330.000
7.610	3640.000
7.900	3930.000
8.190	3490.000
8.480	3845.000
8.770	3060.000
9.060	2935.000
9.350	2950.000
9.640	2820.000
9.930	2760.000
10.220	2780.000
10.510	2905.000
10.800	2905.000
11.090	2655.000
11.380	2835.000
11.670	2745.000
11.960	2775.000
12.250	2765.000
12.540	2905.000
12.830	2990.000
13.120	2820.000
13.410	3010.000
13.700	2925.000
13.990	2960.000
14.280	2925.000
14.570	3145.000
14.860	3250.000
15.150	3225.000
15.440	3880.000
15.730	4500.000
16.020	11220.000
16.310	8090.000
16.600	4330.000
16.890	4015.000
17.180	4040.000
17.470	4690.000
17.760	4315.000
18.050	3705.000
18.340	3815.000
18.630	3945.000
18.920	3790.000
19.210	3710.000
19.500	3800.000
19.790	3770.000
20.080	3690.000
20.370	3575.000
20.660	3665.000
20.950	3850.000
21.240	3780.000
21.530	4325.000
21.820	9290.000
22.110	4685.000
22.400	4065.000
22.690	4045.000
22.980	3945.000
23.270	4095.000
23.560	4375.000
23.850	4435.000
24.140	3995.000
24.430	4070.000
24.720	4025.000
25.010	3915.000
25.300	4120.000
25.590	4035.000
25.880	4755.000
26.170	4695.000
26.460	5605.000
26.750	5205.000
27.040	4450.000
27.330	4385.000
27.620	4605.000
27.910	4490.000
28.200	4620.000
28.490	6575.000
28.780	8020.000
29.070	5100.000
29.360	4630.000
29.650	4800.000
29.940	4700.000
30.230	4690.000
30.520	5035.000
30.810	5905.000
31.100	6515.000
31.390	10520.000
31.680	7460.000
31.970	7105.000
32.260	10995.000
32.550	8450.000
32.840	6380.000
33.130	5640.000
33.420	5415.000
33.710	6245.000
34.000	10155.000
34.290	5825.000
34.580	5940.000
34.870	6450.000
35.160	7020.000
35.450	10485.000
35.740	9775.000
36.030	6625.000
36.320	5385.000
36.610	4650.000
36.900	4665.000
37.190	4565.000
37.480	4200.000
37.770	4400.000
38.060	4955.000
38.350	4625.000
38.640	4405.000
38.930	4480.000
39.220	4720.000
39.510	7270.000
39.800	7980.000
40.090	5405.000
40.380	4810.000
40.670	5275.000
40.960	5405.000
41.250	4230.000
41.540	4060.000
41.830	4055.000
42.120	4075.000
42.410	4085.000
42.700	4080.000
42.990	5070.000
43.280	4255.000
43.570	4080.000
43.860	4310.000
44.150	4180.000
44.440	4735.000
44.730	7155.000
45.020	4410.000
45.310	5040.000
45.600	4060.000
45.890	4105.000
46.180	4305.000
46.470	4195.000
46.760	4140.000
47.050	4465.000
47.340	5125.000
47.630	5525.000
47.920	6580.000
48.210	9785.000
48.500	8430.000
48.790	5975.000
49.080	6385.000
49.370	5240.000
49.660	5040.000
49.950	6075.000
50.240	5575.000
50.530	4815.000
50.820	4625.000
51.110	4575.000
51.400	4530.000
51.690	4610.000
51.980	4500.000
52.270	4325.000
52.560	4385.000
52.850	4505.000
53.140	4655.000
53.430	5160.000
53.720	4910.000
54.010	4675.000
54.300	5005.000
54.590	4615.000
54.880	4480.000
55.170	4455.000
55.460	4560.000
55.750	4500.000
56.040	4645.000
56.330	4455.000
56.620	4355.000
56.910	4310.000
57.200	5445.000
57.490	5430.000
57.780	4475.000
58.070	4140.000
58.360	4250.000
58.650	3850.000
58.940	3970.000
59.230	4250.000
59.520	4005.000
59.810	3930.000
60.100	3905.000
60.390	3880.000
60.680	3900.000
60.970	3960.000
61.260	4175.000
61.550	4390.000
61.840	4310.000
62.130	4370.000
62.420	4185.000
62.710	4170.000
63.000	4350.000
63.290	4360.000
63.580	4490.000
63.870	5080.000
64.160	5025.000
64.450	4540.000
64.740	4210.000
65.030	4180.000
65.320	4235.000
65.610	4425.000
65.900	4220.000
66.190	4055.000
66.480	3940.000
66.770	4015.000
67.060	4040.000
67.350	4045.000
67.640	4100.000
67.930	4140.000
68.220	4450.000
68.510	4940.000
68.800	4370.000
69.090	4120.000
69.380	4200.000
69.670	4065.000
69.960	3735.000
70.250	3670.000
70.540	3700.000
70.830	3695.000
71.120	3755.000
71.410	3690.000
71.700	3965.000
71.990	3825.000
72.280	4045.000
72.570	4250.000
72.860	4620.000
73.150	4990.000
73.440	4695.000
73.730	4165.000
74.020	4070.000
74.310	4085.000
74.600	4075.000
74.890	4460.000
75.180	4295.000
75.470	4490.000
75.760	4405.000
76.050	4765.000
76.340	4500.000
76.630	4320.000
76.920	4620.000
77.210	4240.000
77.500	4190.000
77.790	3855.000
78.080	3775.000
78.370	3735.000
78.660	3700.000
78.950	3590.000
79.240	3785.000
79.530	3830.000
79.820	3895.000
80.110	3830.000
80.400	3705.000
80.690	3540.000
80.980	3690.000
81.270	3680.000
81.560	3805.000
81.850	3725.000
82.140	3745.000
82.430	3595.000
82.720	3710.000
83.010	3700.000
83.300	3830.000
83.590	3845.000
83.880	4320.000
84.170	4135.000
84.460	3900.000
84.750	3770.000
85.040	4080.000
85.330	3965.000
85.620	3685.000
85.910	3915.000
86.200	3855.000
86.490	3655.000
86.780	3800.000
87.070	3855.000
87.360	3665.000
87.650	3770.000
87.940	3700.000
88.230	3770.000
88.520	3940.000
88.810	3605.000
89.100	3590.000
89.390	3695.000
89.680	3930.000
89.970	3715.000
90.000	3715.000

File: CuOGPinCuCl2.xy
5.000	2575.000
5.320	2691.667
5.640	2600.000
5.960	2512.500
6.280	2541.667
6.600	2683.333
6.920	2450.000
7.240	2520.833
7.560	2466.667
7.880	2554.167
8.200	2500.000
8.520	2508.333
8.840	2416.667
9.160	2454.167
9.480	2416.667
9.800	2395.833
10.120	2487.500
10.440	2508.333
10.760	2429.167
11.080	2508.333
11.400	2579.167
11.720	2608.333
12.040	2666.667
12.360	2600.000
12.680	2816.667
13.000	2675.000
13.320	2808.333
13.640	2970.833
13.960	2895.833
14.280	3016.667
14.600	3287.500
14.920	3316.667
15.240	3645.833
15.560	13012.500
15.880	30287.500
16.200	518679.167
16.520	19120.833
16.840	11954.167
17.160	9937.500
17.480	9050.000
17.800	7925.000
18.120	7350.000
18.440	7170.833
18.760	6504.167
19.080	5837.500
19.400	5379.167
19.720	5337.500
20.040	4779.167
20.360	4662.500
20.680	4562.500
21.000	4516.667
21.320	5391.667
21.640	7179.167
21.960	137879.167
22.280	6020.833
22.600	4658.333
22.920	4412.500
23.240	4341.667
23.560	4458.333
23.880	4883.333
24.200	4287.500
24.520	4062.500
24.840	4279.167
25.160	4179.167
25.480	4204.167
25.800	4316.667
26.120	4241.667
26.440	4750.000
26.760	4408.333
27.080	4141.667
27.400	4333.333
27.720	4308.333
28.040	4025.000
28.360	4387.500
28.680	4370.833
29.000	4383.333
29.320	4212.500
29.640	4291.667
29.960	4341.667
30.280	4250.000
30.600	4733.333
30.920	5216.667
31.240	6604.167
31.560	7200.000
31.880	6525.000
32.200	9383.333
32.520	17191.667
32.840	14170.833
33.160	6045.833
33.480	5333.333
33.800	5150.000
34.120	5150.000
34.440	5345.833
34.760	5787.500
35.080	6270.833
35.400	18750.000
35.720	8091.667
36.040	5945.833
36.360	5075.000
36.680	4833.333
37.000	4650.000
37.320	4500.000
37.640	4350.000
37.960	5737.500
38.280	4354.167
38.600	4383.333
38.920	4225.000
39.240	4754.167
39.560	6379.167
39.880	5275.000
40.200	4541.667
40.520	4341.667
40.840	5175.000
41.160	4041.667
41.480	4129.167
41.800	4108.333
42.120	4366.667
42.440	4262.500
42.760	4154.167
43.080	4395.833
43.400	4295.833
43.720	4312.500
44.040	4404.167
44.360	5091.667
44.680	48458.333
45.000	5658.333
45.320	4420.833
45.640	4350.000
45.960	4320.833
46.280	4262.500
46.600	4279.167
46.920	4462.500
47.240	4766.667
47.560	5425.000
47.880	6645.833
48.200	8750.000
48.520	6733.333
48.840	5504.167
49.160	6537.500
49.480	5479.167
49.800	8037.500
50.120	15000.000
50.440	4845.833
50.760	4604.167
51.080	4420.833
51.400	4554.167
51.720	4341.667
52.040	4400.000
52.360	4216.667
52.680	4087.500
53.000	4254.167
53.320	4816.667
53.640	4500.000
53.960	4195.833
54.280	5625.000
54.600	4295.833
54.920	4183.333
55.240	4037.500
55.560	4050.000
55.880	4166.667
56.200	4325.000
56.520	4020.833
56.840	4350.000
57.160	4487.500
57.480	4704.167
57.800	4062.500
58.120	4183.333
58.440	5104.167
58.760	4075.000
59.080	4004.167
59.400	3925.000
59.720	3929.167
60.040	3991.667
60.360	3887.500
60.680	4054.167
61.000	4116.667
61.320	4037.500
61.640	4054.167
61.960	4162.500
62.280	4250.000
62.600	4145.833
62.920	4150.000
63.240	4225.000
63.560	4479.167
63.880	4812.500
64.200	4716.667
64.520	4558.333
64.840	4383.333
65.160	4470.833
65.480	4616.667
65.800	4666.667
66.120	4241.667
66.440	4429.167
66.760	4366.667
67.080	4604.167
67.400	4841.667
67.720	5025.000
68.040	5887.500
68.360	12375.000
68.680	52541.667
69.000	6462.500
69.320	5450.000
69.640	6529.167
69.960	4266.667
70.280	4237.500
70.600	4166.667
70.920	4195.833
71.240	4208.333
71.560	4195.833
71.880	4066.667
72.200	4345.833
72.520	4625.000
72.840	5100.000
73.160	5054.167
73.480	4754.167
73.800	4475.000
74.120	4104.167
74.440	4354.167
74.760	4200.000
75.080	4600.000
75.400	4454.167
75.720	4612.500
76.040	4637.500
76.360	4512.500
76.680	4633.333
77.000	4637.500
77.320	4258.333
77.640	4104.167
77.960	3991.667
78.280	3791.667
78.600	3837.500
78.920	3779.167
79.240	3745.833
79.560	3791.667
79.880	3808.333
80.200	3866.667
80.520	3816.667
80.840	3808.333
81.160	3779.167
81.480	3716.667
81.800	3620.833
82.120	3716.667
82.440	3841.667
82.760	3891.667
83.080	4025.000
83.400	3983.333
83.720	3725.000
84.040	3966.667
84.360	4029.167
84.680	4066.667
85.000	4250.000
85.320	3854.167
85.640	3833.333
85.960	4079.167
86.280	3783.333
86.600	3716.667
86.920	3725.000
87.240	3787.500
87.560	3716.667
87.880	3745.833
88.200	3912.500
88.520	3704.167
88.840	3983.333
89.160	4333.333
89.480	10641.667
89.800	8070.833
90.120	4075.000
90.440	3825.000
90.760	3483.333
91.080	3837.500
91.400	3741.667
91.720	3658.333
92.040	3695.833
92.360	3575.000
92.680	3804.167
93.000	3737.500
93.320	3670.833
93.640	3716.667
93.960	3687.500
94.280	3808.333
94.600	3812.500
94.920	3604.167
95.240	3729.167
95.560	3591.667
95.880	3550.000
96.200	3745.833
96.520	3562.500
96.840	3591.667
97.160	3637.500
97.480	4045.833
97.800	3691.667
98.120	3854.167
98.440	4012.500
98.760	4175.000
99.080	4354.167
99.400	4058.333
99.720	3945.833
100.000	3708.333

File: Graphene_CuO_in_CuCl2_550.xy
5.000	1437.500
5.300	1495.833
5.600	1262.500
5.900	1162.500
6.200	1141.667
6.500	1066.667
6.800	1104.167
7.100	1166.667
7.400	1087.500
7.700	1108.333
8.000	1120.833
8.300	987.500
8.600	1112.500
8.900	1062.500
9.200	1079.167
9.500	1133.333
9.800	1154.167
10.100	1100.000
10.400	1191.667
10.700	1066.667
11.000	1200.000
11.300	1145.833
11.600	1008.333
11.900	1141.667
12.200	1158.333
12.500	1054.167
12.800	1070.833
13.100	1029.167
13.400	991.667
13.700	1058.333
14.000	1000.000
14.300	912.500
14.600	933.333
14.900	945.833
15.200	933.333
15.500	1029.167
15.800	945.833
16.100	891.667
16.400	929.167
16.700	870.833
17.000	929.167
17.300	916.667
17.600	858.333
17.900	900.000
18.200	950.000
18.500	841.667
18.800	891.667
19.100	1050.000
19.400	745.833
19.700	808.333
20.000	879.167
20.300	800.000
20.600	787.500
20.900	858.333
21.200	795.833
21.500	750.000
21.800	816.667
22.100	779.167
22.400	787.500
22.700	729.167
23.000	729.167
23.300	845.833
23.600	837.500
23.900	795.833
24.200	804.167
24.500	745.833
24.800	812.500
25.100	770.833
25.400	787.500
25.700	804.167
26.000	720.833
26.300	662.500
26.600	741.667
26.900	795.833
27.200	812.500
27.500	775.000
27.800	733.333
28.100	687.500
28.400	879.167
28.700	858.333
29.000	875.000
29.300	820.833
29.600	904.167
29.900	900.000
30.200	1041.667
30.500	920.833
30.800	1312.500
31.100	1670.833
31.400	3108.333
31.700	35516.667
32.000	13208.333
32.300	2216.667
32.600	1454.167
32.900	1154.167
33.200	1154.167
33.500	1375.000
33.800	1679.167
34.100	2545.833
34.400	45141.667
34.700	6391.667
35.000	2062.500
35.300	2050.000
35.600	3450.000
35.900	5025.000
36.200	71987.500
36.500	23550.000
36.800	3054.167
37.100	1933.333
37.400	1579.167
37.700	1345.833
38.000	1229.167
38.300	1250.000
38.600	1525.000
38.900	1475.000
39.200	1120.833
39.500	945.833
39.800	908.333
40.100	975.000
40.400	887.500
40.700	904.167
41.000	900.000
41.300	841.667
41.600	804.167
41.900	833.333
42.200	733.333
42.500	758.333
42.800	766.667
43.100	829.167
43.400	808.333
43.700	687.500
44.000	700.000
44.300	675.000
44.600	750.000
44.900	779.167
45.200	762.500
45.500	654.167
45.800	745.833
46.100	745.833
46.400	695.833
46.700	787.500
47.000	1041.667
47.300	2587.500
47.600	32741.667
47.900	2929.167
48.200	1008.333
48.500	770.833
48.800	920.833
49.100	750.000
49.400	733.333
49.700	670.833
50.000	695.833
50.300	637.500
50.600	679.167
50.900	712.500
51.200	687.500
51.500	658.333
51.800	662.500
52.100	683.333
52.400	645.833
52.700	712.500
53.000	691.667
53.300	691.667
53.600	783.333
53.900	662.500
54.200	641.667
54.500	687.500
54.800	783.333
55.100	925.000
55.400	916.667
55.700	991.667
56.000	1358.333
56.300	3316.667
56.600	42770.833
56.900	8362.500
57.200	1545.833
57.500	1008.333
57.800	887.500
58.100	795.833
58.400	945.833
58.700	750.000
59.000	779.167
59.300	737.500
59.600	791.667
59.900	729.167
60.200	770.833
60.500	908.333
60.800	841.667
61.100	920.833
61.400	958.333
61.700	1108.333
62.000	1029.167
62.300	1429.167
62.600	4020.833
62.900	36791.667
63.200	6537.500
63.500	1483.333
63.800	1008.333
64.100	983.333
64.400	1037.500
64.700	929.167
65.000	787.500
65.300	895.833
65.600	958.333
65.900	1279.167
66.200	2075.000
66.500	4883.333
66.800	1437.500
67.100	1216.667
67.400	1583.333
67.700	4020.833
68.000	27620.833
68.300	6212.500
68.600	1845.833
68.900	3637.500
69.200	10733.333
69.500	2287.500
69.800	1070.833
70.100	887.500
70.400	862.500
70.700	770.833
71.000	750.000
71.300	783.333
71.600	679.167
71.900	758.333
72.200	841.667
72.500	1979.167
72.800	1945.833
73.100	725.000
73.400	650.000
73.700	658.333
74.000	608.333
74.300	675.000
74.600	629.167
74.900	737.500
75.200	691.667
75.500	679.167
75.800	645.833
76.100	637.500
76.400	725.000
76.700	1237.500
77.000	4791.667
77.300	1920.833
77.600	654.167
77.900	650.000
78.200	650.000
78.500	525.000
78.800	608.333
79.100	616.667
79.400	537.500
79.700	575.000
80.000	550.000
80.300	600.000
80.600	591.667
80.900	654.167
81.200	1029.167
81.500	1954.167
81.800	950.000
82.100	641.667
82.400	625.000
82.700	637.500
83.000	591.667
83.300	633.333
83.600	633.333
83.900	629.167
84.200	558.333
84.500	533.333
84.800	450.000
85.100	512.500
85.400	583.333
85.700	558.333
86.000	529.167
86.300	545.833
86.600	575.000
86.900	625.000
87.200	566.667
87.500	583.333
87.800	541.667
88.100	550.000
88.400	545.833
88.700	704.167
89.000	825.000
89.300	1595.833
89.600	8008.333
89.900	5154.167
90.000	5079.167

File: Graphene_ZnO_in_CuCl2.xy
5.000	2025.000
5.290	1870.000
5.580	1515.000
5.870	1670.000
6.160	1605.000
6.450	1355.000
6.740	1455.000
7.030	1370.000
7.320	1480.000
7.610	1330.000
7.900	1300.000
8.190	1215.000
8.480	1370.000
8.770	1240.000
9.060	1335.000
9.350	1250.000
9.640	1320.000
9.930	1345.000
10.220	1370.000
10.510	1655.000
10.800	4690.000
11.090	158445.000
11.380	5855.000
11.670	2720.000
11.960	2295.000
12.250	1855.000
12.540	1785.000
12.830	1545.000
13.120	1600.000
13.410	1440.000
13.700	1405.000
13.990	1305.000
14.280	1350.000
14.570	1435.000
14.860	1525.000
15.150	3015.000
15.440	24445.000
15.730	5715.000
16.020	2460.000
16.310	2010.000
16.600	2250.000
16.890	1320.000
17.180	1255.000
17.470	1150.000
17.760	1645.000
18.050	1135.000
18.340	1125.000
18.630	985.000
18.920	1040.000
19.210	1080.000
19.500	990.000
19.790	950.000
20.080	1000.000
20.370	1095.000
20.660	1065.000
20.950	970.000
21.240	1080.000
21.530	1210.000
21.820	2125.000
22.110	5070.000
22.400	11500.000
22.690	1650.000
22.980	1150.000
23.270	1200.000
23.560	1155.000
23.850	1155.000
24.140	1250.000
24.430	1585.000
24.720	20795.000
25.010	1790.000
25.300	1565.000
25.590	1915.000
25.880	2605.000
26.170	5985.000
26.460	32895.000
26.750	4850.000
27.040	2040.000
27.330	1480.000
27.620	1475.000
27.910	2730.000
28.200	2730.000
28.490	1325.000
28.780	1240.000
29.070	1180.000
29.360	1270.000
29.650	1205.000
29.940	1570.000
30.230	9240.000
30.520	2775.000
30.810	4360.000
31.100	12590.000
31.390	3560.000
31.680	5075.000
31.970	2490.000
32.260	3480.000
32.550	4115.000
32.840	12215.000
33.130	3150.000
33.420	27280.000
33.710	2895.000
34.000	7165.000
34.290	17775.000
34.580	3965.000
34.870	2505.000
35.160	1910.000
35.450	1715.000
35.740	2025.000
36.030	3030.000
36.320	7210.000
36.610	1585.000
36.900	1350.000
37.190	1280.000
37.480	1690.000
37.770	17525.000
38.060	1880.000
38.350	1220.000
38.640	1105.000
38.930	1125.000
39.220	1335.000
39.510	1320.000
39.800	1290.000
40.090	1275.000
40.380	1445.000
40.670	1560.000
40.960	1830.000
41.250	1755.000
41.540	4790.000
41.830	1425.000
42.120	1240.000
42.410	1140.000
42.700	1060.000
42.990	1250.000
43.280	1280.000
43.570	1500.000
43.860	1705.000
44.150	1660.000
44.440	2605.000
44.730	17090.000
45.020	5650.000
45.310	2000.000
45.600	1770.000
45.890	6625.000
46.180	3595.000
46.470	1780.000
46.760	1180.000
47.050	1225.000
47.340	1400.000
47.630	2315.000
47.920	3140.000
48.210	1635.000
48.500	1325.000
48.790	1350.000
49.080	1330.000
49.370	1270.000
49.660	2010.000
49.950	1275.000
50.240	1150.000
50.530	1335.000
50.820	5430.000
51.110	3105.000
51.400	2100.000
51.690	4785.000
51.980	1195.000
52.270	1060.000
52.560	1055.000
52.850	1420.000
53.140	1275.000
53.430	1385.000
53.720	2760.000
54.010	10120.000
54.300	3475.000
54.590	4215.000
54.880	2820.000
55.170	2000.000
55.460	1505.000
55.750	1665.000
56.040	1175.000
56.330	1215.000
56.620	1850.000
56.910	1490.000
57.200	1705.000
57.490	1495.000
57.780	1785.000
58.070	12260.000
58.360	4010.000
58.650	1895.000
58.940	1490.000
59.230	3170.000
59.520	3635.000
59.810	1330.000
60.100	1125.000
60.390	1175.000
60.680	1720.000
60.970	12045.000
61.260	2845.000
61.550	2595.000
61.840	2440.000
62.130	1010.000
62.420	1030.000
62.710	1815.000
63.000	2140.000
63.290	1465.000
63.580	945.000
63.870	1035.000
64.160	1740.000
64.450	1425.000
64.740	2750.000
65.030	1195.000
65.320	1030.000
65.610	1295.000
65.900	1215.000
66.190	1020.000
66.480	1010.000
66.770	845.000
67.060	980.000
67.350	2440.000
67.640	1335.000
67.930	1590.000
68.220	1535.000
68.510	1980.000
68.800	1835.000
69.090	1610.000
69.380	1890.000
69.670	1175.000
69.960	1135.000
70.250	1130.000
70.540	860.000
70.830	940.000
71.120	950.000
71.410	1735.000
71.700	2780.000
71.990	1660.000
72.280	1335.000
72.570	3545.000
72.860	1335.000
73.150	825.000
73.440	895.000
73.730	955.000
74.020	1040.000
74.310	825.000
74.600	790.000
74.890	855.000
75.180	835.000
75.470	920.000
75.760	950.000
76.050	870.000
76.340	1130.000
76.630	1675.000
76.920	1860.000
77.210	1980.000
77.500	1110.000
77.790	730.000
78.080	750.000
78.370	1010.000
78.660	1275.000
78.950	1025.000
79.240	695.000
79.530	780.000
79.820	835.000
80.110	890.000
80.400	725.000
80.690	880.000
80.980	1235.000
81.270	1105.000
81.560	1010.000
81.850	725.000
82.140	765.000
82.430	845.000
82.720	820.000
83.010	845.000
83.300	2000.000
83.590	2330.000
83.880	1140.000
84.170	845.000
84.460	1000.000
84.750	735.000
85.040	745.000
85.330	775.000
85.620	940.000
85.910	795.000
86.200	765.000
86.490	730.000
86.780	880.000
87.070	1680.000
87.360	1260.000
87.650	980.000
87.940	820.000
88.230	710.000
88.520	725.000
88.810	780.000
89.100	1165.000
89.390	1670.000
89.680	1460.000
89.970	1625.000
90.000	1625.000

File: Graphene_ZnO_in_FeCl3.xy
5.000	2035.000
5.290	1765.000
5.580	1725.000
5.870	1820.000
6.160	1675.000
6.450	1665.000
6.740	1675.000
7.030	1660.000
7.320	1570.000
7.610	1570.000
7.900	1595.000
8.190	1565.000
8.480	1645.000
8.770	1630.000
9.060	1580.000
9.350	1735.000
9.640	1695.000
9.930	1730.000
10.220	1740.000
10.510	1820.000
10.800	1890.000
11.090	1910.000
11.380	2015.000
11.670	2125.000
11.960	2130.000
12.250	2175.000
12.540	2215.000
12.830	2310.000
13.120	2190.000
13.410	2360.000
13.700	2395.000
13.990	2270.000
14.280	2320.000
14.570	2475.000
14.860	2725.000
15.150	2675.000
15.440	2695.000
15.730	2720.000
16.020	2820.000
16.310	2855.000
16.600	3015.000
16.890	3050.000
17.180	3105.000
17.470	2980.000
17.760	3035.000
18.050	3210.000
18.340	3110.000
18.630	3270.000
18.920	3045.000
19.210	3100.000
19.500	3150.000
19.790	3095.000
20.080	3170.000
20.370	3150.000
20.660	3270.000
20.950	3255.000
21.240	3170.000
21.530	3280.000
21.820	3300.000
22.110	3180.000
22.400	3125.000
22.690	3375.000
22.980	3280.000
23.270	3385.000
23.560	3450.000
23.850	3480.000
24.140	3435.000
24.430	3380.000
24.720	3625.000
25.010	3780.000
25.300	3755.000
25.590	3840.000
25.880	3820.000
26.170	4515.000
26.460	4825.000
26.750	4755.000
27.040	4495.000
27.330	4360.000
27.620	4015.000
27.910	3890.000
28.200	4045.000
28.490	3985.000
28.780	4045.000
29.070	4070.000
29.360	3945.000
29.650	3985.000
29.940	4040.000
30.230	4035.000
30.520	3715.000
30.810	4130.000
31.100	3865.000
31.390	3725.000
31.680	3925.000
31.970	3865.000
32.260	3785.000
32.550	4025.000
32.840	3960.000
33.130	3950.000
33.420	4060.000
33.710	3910.000
34.000	4055.000
34.290	4230.000
34.580	4475.000
34.870	4460.000
35.160	4700.000
35.450	4480.000
35.740	4135.000
36.030	4115.000
36.320	3855.000
36.610	4020.000
36.900	3960.000
37.190	3875.000
37.480	4045.000
37.770	3855.000
38.060	3980.000
38.350	3855.000
38.640	4045.000
38.930	4045.000
39.220	4200.000
39.510	3980.000
39.800	4015.000
40.090	3995.000
40.380	3920.000
40.670	3765.000
40.960	3885.000
41.250	3740.000
41.540	3860.000
41.830	3745.000
42.120	4025.000
42.410	4185.000
42.700	3915.000
42.990	3920.000
43.280	4130.000
43.570	4145.000
43.860	4015.000
44.150	4180.000
44.440	4180.000
44.730	4100.000
45.020	4045.000
45.310	4195.000
45.600	4210.000
45.890	4235.000
46.180	4225.000
46.470	4320.000
46.760	4050.000
47.050	3925.000
47.340	4145.000
47.630	4145.000
47.920	4020.000
48.210	4005.000
48.500	4020.000
48.790	4300.000
49.080	4130.000
49.370	4100.000
49.660	4015.000
49.950	4055.000
50.240	3895.000
50.530	4050.000
50.820	4260.000
51.110	4140.000
51.400	4265.000
51.690	4225.000
51.980	4410.000
52.270	4125.000
52.560	4130.000
52.850	4175.000
53.140	4175.000
53.430	4170.000
53.720	4160.000
54.010	4145.000
54.300	4065.000
54.590	4140.000
54.880	4175.000
55.170	4295.000
55.460	4430.000
55.750	4500.000
56.040	4470.000
56.330	4160.000
56.620	4110.000
56.910	4060.000
57.200	4115.000
57.490	4045.000
57.780	3960.000
58.070	3785.000
58.360	3900.000
58.650	3885.000
58.940	3775.000
59.230	3795.000
59.520	3830.000
59.810	3775.000
60.100	3930.000
60.390	3855.000
60.680	3970.000
60.970	4220.000
61.260	4060.000
61.550	3945.000
61.840	3940.000
62.130	3980.000
62.420	3990.000
62.710	4095.000
63.000	3975.000
63.290	3945.000
63.580	4040.000
63.870	4125.000
64.160	4080.000
64.450	3845.000
64.740	3920.000
65.030	4020.000
65.320	3870.000
65.610	3735.000
65.900	3865.000
66.190	3855.000
66.480	3675.000
66.770	3825.000
67.060	3795.000
67.350	3870.000
67.640	3890.000
67.930	3850.000
68.220	3890.000
68.510	3795.000
68.800	3815.000
69.090	3745.000
69.380	3835.000
69.670	3800.000
69.960	3780.000
70.250	3640.000
70.540	3840.000
70.830	3735.000
71.120	3675.000
71.410	3735.000
71.700	3735.000
71.990	3775.000
72.280	3850.000
72.570	3730.000
72.860	3645.000
73.150	3655.000
73.440	3890.000
73.730	3715.000
74.020	3770.000
74.310	3625.000
74.600	3725.000
74.890	4060.000
75.180	3755.000
75.470	3745.000
75.760	3725.000
76.050	3720.000
76.340	3675.000
76.630	3670.000
76.920	3645.000
77.210	3605.000
77.500	3810.000
77.790	3705.000
78.080	3755.000
78.370	3600.000
78.660	3835.000
78.950	3650.000
79.240	3670.000
79.530	3590.000
79.820	3775.000
80.110	3700.000
80.400	3680.000
80.690	3510.000
80.980	3810.000
81.270	3665.000
81.560	3640.000
81.850	3655.000
82.140	3655.000
82.430	3720.000
82.720	3700.000
83.010	3750.000
83.300	3695.000
83.590	3735.000
83.880	3865.000
84.170	3960.000
84.460	3815.000
84.750	3655.000
85.040	3675.000
85.330	3585.000
85.620	3695.000
85.910	3675.000
86.200	3860.000
86.490	3685.000
86.780	3735.000
87.070	3620.000
87.360	3660.000
87.650	3710.000
87.940	3585.000
88.230	3760.000
88.520	3685.000
88.810	3650.000
89.100	3635.000
89.390	3790.000
89.680	3675.000
89.970	3615.000
90.000	3615.000