Folder: xray_python/xrd (part 2)

File: ZnoFeCl3_650.xy
5.000	939.000
5.290	891.000
5.580	959.000
5.870	958.000
6.160	938.000
6.450	944.000
6.740	946.000
7.030	925.000
7.320	960.000
7.610	917.000
7.900	968.000
8.190	982.000
8.480	964.000
8.770	982.000
9.060	1010.000
9.350	939.000
9.640	1009.000
9.930	1017.000
10.220	1020.000
10.510	1093.000
10.800	1074.000
11.090	1098.000
11.380	1133.000
11.670	1140.000
11.960	1151.000
12.250	1205.000
12.540	1192.000
12.830	1215.000
13.120	1195.000
13.410	1239.000
13.700	1258.000
13.990	1308.000
14.280	1297.000
14.570	1270.000
14.860	1313.000
15.150	1349.000
15.440	1304.000
15.730	1311.000
16.020	1369.000
16.310	1315.000
16.600	1375.000
16.890	1396.000
17.180	1378.000
17.470	1414.000
17.760	1408.000
18.050	1548.000
18.340	1479.000
18.630	1461.000
18.920	1443.000
19.210	1468.000
19.500	1488.000
19.790	1518.000
20.080	1537.000
20.370	1508.000
20.660	1545.000
20.950	1566.000
21.240	1593.000
21.530	1589.000
21.820	1627.000
22.110	1549.000
22.400	1557.000
22.690	1621.000
22.980	1617.000
23.270	1631.000
23.560	1632.000
23.850	1686.000
24.140	2189.000
24.430	1682.000
24.720	1672.000
25.010	1615.000
25.300	1679.000
25.590	1642.000
25.880	1722.000
26.170	1734.000
26.460	1741.000
26.750	1683.000
27.040	1701.000
27.330	1725.000
27.620	1692.000
27.910	1695.000
28.200	1756.000
28.490	1751.000
28.780	1752.000
29.070	1742.000
29.360	1758.000
29.650	1782.000
29.940	2165.000
30.230	1783.000
30.520	1762.000
30.810	1759.000
31.100	1753.000
31.390	1775.000
31.680	1747.000
31.970	1774.000
32.260	1786.000
32.550	1848.000
32.840	2051.000
33.130	4305.000
33.420	1891.000
33.710	1832.000
34.000	1764.000
34.290	1879.000
34.580	1830.000
34.870	1913.000
35.160	3713.000
35.450	3062.000
35.740	2162.000
36.030	1850.000
36.320	1811.000
36.610	1768.000
36.900	1849.000
37.190	1826.000
37.480	1818.000
37.770	1817.000
38.060	1785.000
38.350	1778.000
38.640	1844.000
38.930	1787.000
39.220	1828.000
39.510	1799.000
39.800	1823.000
40.090	1800.000
40.380	1830.000
40.670	2126.000
40.960	1957.000
41.250	1835.000
41.540	1804.000
41.830	1809.000
42.120	1787.000
42.410	1814.000
42.700	2000.000
42.990	1819.000
43.280	1842.000
43.570	1807.000
43.860	1866.000
44.150	1822.000
44.440	1786.000
44.730	1766.000
45.020	1842.000
45.310	1785.000
45.600	1778.000
45.890	1804.000
46.180	1866.000
46.470	1825.000
46.760	1773.000
47.050	1830.000
47.340	1830.000
47.630	1777.000
47.920	1792.000
48.210	1806.000
48.500	1818.000
48.790	1858.000
49.080	1893.000
49.370	2825.000
49.660	1954.000
49.950	1876.000
50.240	1785.000
50.530	1833.000
50.820	1846.000
51.110	1831.000
51.400	1809.000
51.690	1840.000
51.980	1809.000
52.270	1799.000
52.560	1815.000
52.850	1841.000
53.140	1939.000
53.430	1884.000
53.720	1869.000
54.010	2802.000
54.300	1992.000
54.590	1859.000
54.880	1787.000
55.170	1766.000
55.460	1768.000
55.750	1761.000
56.040	1886.000
56.330	1903.000
56.620	2243.000
56.910	1841.000
57.200	1821.000
57.490	2040.000
57.780	1903.000
58.070	1832.000
58.360	1805.000
58.650	1844.000
58.940	1822.000
59.230	1830.000
59.520	1838.000
59.810	1754.000
60.100	1850.000
60.390	1837.000
60.680	1822.000
60.970	1827.000
61.260	1837.000
61.550	1837.000
61.840	1895.000
62.130	2465.000
62.420	2468.000
62.710	1960.000
63.000	1858.000
63.290	1836.000
63.580	1863.000
63.870	2516.000
64.160	2040.000
64.450	1903.000
64.740	1846.000
65.030	1877.000
65.320	1830.000
65.610	1845.000
65.900	1821.000
66.190	1826.000
66.480	1848.000
66.770	1789.000
67.060	1841.000
67.350	1858.000
67.640	1797.000
67.930	1793.000
68.220	1841.000
68.510	1837.000
68.800	1811.000
69.090	1828.000
69.380	1850.000
69.670	1858.000
69.960	1865.000
70.250	1859.000
70.540	1838.000
70.830	1820.000
71.120	1817.000
71.410	1862.000
71.700	1870.000
71.990	1981.000
72.280	1876.000
72.570	1867.000
72.860	1789.000
73.150	1862.000
73.440	1909.000
73.730	1843.000
74.020	1833.000
74.310	1900.000
74.600	1903.000
74.890	1881.000
75.180	1896.000
75.470	1909.000
75.760	1834.000
76.050	1834.000
76.340	1775.000
76.630	1846.000
76.920	1807.000
77.210	1795.000
77.500	1839.000
77.790	1843.000
78.080	1865.000
78.370	1855.000
78.660	1817.000
78.950	1806.000
79.240	1794.000
79.530	1808.000
79.820	1815.000
80.110	1812.000
80.400	1843.000
80.690	1916.000
80.980	1846.000
81.270	1826.000
81.560	1839.000
81.850	1865.000
82.140	1857.000
82.430	1772.000
82.720	1937.000
83.010	1895.000
83.300	1870.000
83.590	1828.000
83.880	1794.000
84.170	1820.000
84.460	1793.000
84.750	1926.000
85.040	1917.000
85.330	1872.000
85.620	1849.000
85.910	1863.000
86.200	1835.000
86.490	1839.000
86.780	1879.000
87.070	1815.000
87.360	1809.000
87.650	1820.000
87.940	1917.000
88.230	1858.000
88.520	1923.000
88.810	1972.000
89.100	1894.000
89.390	1843.000
89.680	1839.000
89.970	1788.000
90.000	1788.000