Folder: xray_python/xrd/previousNaming

File: CuOCuCl2_650.xy
5.000	304.000
5.290	281.000
5.580	284.000
5.870	266.000
6.160	243.000
6.450	256.000
6.740	229.000
7.030	256.000
7.320	222.000
7.610	242.000
7.900	236.000
8.190	220.000
8.480	231.000
8.770	238.000
9.060	251.000
9.350	234.000
9.640	220.000
9.930	247.000
10.220	238.000
10.510	247.000
10.800	238.000
11.090	243.000
11.380	235.000
11.670	236.000
11.960	240.000
12.250	220.000
12.540	250.000
12.830	219.000
13.120	212.000
13.410	209.000
13.700	219.000
13.990	214.000
14.280	202.000
14.570	199.000
14.860	195.000
15.150	201.000
15.440	189.000
15.730	187.000
16.020	202.000
16.310	182.000
16.600	175.000
16.890	182.000
17.180	179.000
17.470	191.000
17.760	169.000
18.050	171.000
18.340	166.000
18.630	163.000
18.920	204.000
19.210	156.000
19.500	157.000
19.790	160.000
20.080	160.000
20.370	163.000
20.660	152.000
20.950	154.000
21.240	151.000
21.530	161.000
21.820	146.000
22.110	170.000
22.400	155.000
22.690	159.000
22.980	159.000
23.270	140.000
23.560	126.000
23.850	155.000
24.140	141.000
24.430	140.000
24.720	141.000
25.010	144.000
25.300	142.000
25.590	137.000
25.880	141.000
26.170	144.000
26.460	150.000
26.750	136.000
27.040	159.000
27.330	137.000
27.620	134.000
27.910	139.000
28.200	162.000
28.490	195.000
28.780	149.000
29.070	150.000
29.360	162.000
29.650	154.000
29.940	159.000
30.230	155.000
30.520	207.000
30.810	261.000
31.100	370.000
31.390	882.000
31.680	22768.000
31.970	798.000
32.260	298.000
32.550	260.000
32.840	222.000
33.130	257.000
33.420	276.000
33.710	285.000
34.000	564.000
34.290	12412.000
34.580	943.000
34.870	409.000
35.160	401.000
35.450	555.000
35.740	920.000
36.030	8537.000
36.320	7801.000
36.610	690.000
36.900	398.000
37.190	304.000
37.480	291.000
37.770	250.000
38.060	243.000
38.350	253.000
38.640	320.000
38.930	226.000
39.220	193.000
39.510	187.000
39.800	180.000
40.090	169.000
40.380	163.000
40.670	179.000
40.960	184.000
41.250	155.000
41.540	146.000
41.830	155.000
42.120	145.000
42.410	139.000
42.700	151.000
42.990	184.000
43.280	144.000
43.570	134.000
43.860	123.000
44.150	133.000
44.440	128.000
44.730	137.000
45.020	135.000
45.310	148.000
45.600	129.000
45.890	162.000
46.180	165.000
46.470	154.000
46.760	169.000
47.050	327.000
47.340	2719.000
47.630	2551.000
47.920	269.000
48.210	185.000
48.500	164.000
48.790	144.000
49.080	125.000
49.370	135.000
49.660	134.000
49.950	115.000
50.240	124.000
50.530	133.000
50.820	120.000
51.110	132.000
51.400	126.000
51.690	129.000
51.980	145.000
52.270	121.000
52.560	119.000
52.850	128.000
53.140	129.000
53.430	134.000
53.720	133.000
54.010	117.000
54.300	144.000
54.590	159.000
54.880	153.000
55.170	157.000
55.460	187.000
55.750	204.000
56.040	386.000
56.330	2076.000
56.620	6209.000
56.910	535.000
57.200	233.000
57.490	181.000
57.780	175.000
58.070	157.000
58.360	152.000
58.650	149.000
58.940	148.000
59.230	147.000
59.520	147.000
59.810	146.000
60.100	126.000
60.390	167.000
60.680	169.000
60.970	170.000
61.260	167.000
61.550	199.000
61.840	193.000
62.130	248.000
62.420	620.000
62.710	6208.000
63.000	2967.000
63.290	378.000
63.580	227.000
63.870	184.000
64.160	167.000
64.450	159.000
64.740	165.000
65.030	161.000
65.320	188.000
65.610	203.000
65.900	255.000
66.190	969.000
66.480	788.000
66.770	236.000
67.060	227.000
67.350	381.000
67.640	1294.000
67.930	4335.000
68.220	880.000
68.510	356.000
68.800	889.000
69.090	2064.000
69.380	413.000
69.670	203.000
69.960	169.000
70.250	146.000
70.540	143.000
70.830	133.000
71.120	136.000
71.410	132.000
71.700	145.000
71.990	161.000
72.280	221.000
72.570	430.000
72.860	192.000
73.150	119.000
73.440	122.000
73.730	135.000
74.020	120.000
74.310	122.000
74.600	128.000
74.890	133.000
75.180	129.000
75.470	117.000
75.760	120.000
76.050	114.000
76.340	139.000
76.630	289.000
76.920	811.000
77.210	299.000
77.500	136.000
77.790	112.000
78.080	103.000
78.370	108.000
78.660	109.000
78.950	111.000
79.240	110.000
79.530	111.000
79.820	100.000
80.110	111.000
80.400	112.000
80.690	95.000
80.980	155.000
81.270	494.000
81.560	326.000
81.850	127.000
82.140	108.000
82.430	105.000
82.720	112.000
83.010	96.000
83.300	101.000
83.590	86.000
83.880	113.000
84.170	107.000
84.460	102.000
84.750	111.000
85.040	117.000
85.330	106.000
85.620	113.000
85.910	93.000
86.200	103.000
86.490	111.000
86.780	98.000
87.070	101.000
87.360	104.000
87.650	117.000
87.940	113.000
88.230	123.000
88.520	129.000
88.810	137.000
89.100	238.000
89.390	998.000
89.680	1066.000
89.970	590.000
90.000	590.000

File: ZnOCuCl2_550.xy
5.000	2637.500
5.300	2458.333
5.600	2300.000
5.900	2300.000
6.200	2270.833
6.500	2354.167
6.800	2270.833
7.100	2429.167
7.400	2187.500
7.700	2245.833
8.000	2225.000
8.300	2250.000
8.600	2287.500
8.900	2204.167
9.200	2316.667
9.500	2216.667
9.800	2350.000
10.100	2312.500
10.400	2458.333
10.700	2470.833
11.000	2508.333
11.300	2637.500
11.600	2554.167
11.900	2604.167
12.200	2616.667
12.500	2666.667
12.800	2741.667
13.100	2604.167
13.400	2687.500
13.700	2666.667
14.000	2583.333
14.300	2787.500
14.600	2933.333
14.900	2887.500
15.200	5866.667
15.500	3183.333
15.800	2833.333
16.100	2908.333
16.400	2912.500
16.700	3033.333
17.000	2904.167
17.300	2866.667
17.600	3012.500
17.900	3000.000
18.200	3125.000
18.500	3500.000
18.800	6750.000
19.100	5608.333
19.400	3408.333
19.700	3245.833
20.000	3175.000
20.300	3187.500
20.600	3258.333
20.900	3170.833
21.200	3120.833
21.500	3341.667
21.800	3304.167
22.100	3254.167
22.400	3320.833
22.700	3645.833
23.000	5800.000
23.300	7104.167
23.600	12829.167
23.900	12737.500
24.200	4416.667
24.500	3937.500
24.800	3812.500
25.100	4170.833
25.400	5991.667
25.700	10612.500
26.000	4229.167
26.300	3629.167
26.600	3670.833
26.900	3812.500
27.200	3579.167
27.500	3650.000
27.800	3704.167
28.100	3795.833
28.400	4091.667
28.700	6770.833
29.000	12758.333
29.300	8954.167
29.600	6125.000
29.900	6720.833
30.200	18816.667
30.500	6587.500
30.800	8437.500
31.100	10812.500
31.400	16700.000
31.700	11762.500
32.000	7258.333
32.300	4920.833
32.600	4462.500
32.900	3741.667
33.200	3945.833
33.500	3637.500
33.800	3816.667
34.100	4000.000
34.400	4250.000
34.700	4704.167
35.000	5233.333
35.300	11620.833
35.600	16683.333
35.900	9345.833
36.200	7750.000
36.500	9895.833
36.800	7500.000
37.100	4245.833
37.400	4254.167
37.700	4170.833
38.000	4770.833
38.300	6191.667
38.600	23837.500
38.900	8570.833
39.200	4662.500
39.500	4170.833
39.800	4662.500
40.100	5300.000
40.400	4537.500
40.700	4216.667
41.000	7929.167
41.300	4695.833
41.600	3958.333
41.900	4191.667
42.200	4895.833
42.500	5670.833
42.800	5700.000
43.100	5116.667
43.400	4970.833
43.700	4545.833
44.000	4304.167
44.300	4204.167
44.600	4933.333
44.900	5679.167
45.200	5691.667
45.500	4791.667
45.800	4608.333
46.100	4100.000
46.400	4095.833
46.700	4191.667
47.000	4604.167
47.300	5241.667
47.600	5250.000
47.900	4566.667
48.200	5008.333
48.500	5516.667
48.800	6579.167
49.100	6929.167
49.400	5716.667
49.700	4929.167
50.000	4679.167
50.300	4879.167
50.600	4891.667
50.900	4604.167
51.200	4558.333
51.500	4491.667
51.800	5462.500
52.100	5525.000
52.400	5604.167
52.700	5437.500
53.000	6441.667
53.300	12258.333
53.600	8070.833
53.900	4804.167
54.200	4408.333
54.500	4179.167
54.800	4733.333
55.100	6012.500
55.400	5975.000
55.700	4904.167
56.000	5487.500
56.300	5795.833
56.600	5633.333
56.900	4750.000
57.200	4291.667
57.500	4204.167
57.800	4041.667
58.100	4579.167
58.400	5208.333
58.700	4412.500
59.000	4612.500
59.300	4462.500
59.600	4187.500
59.900	4116.667
60.200	4370.833
60.500	4616.667
60.800	5720.833
61.100	5416.667
61.400	6520.833
61.700	5904.167
62.000	5258.333
62.300	6016.667
62.600	7716.667
62.900	6520.833
63.200	5616.667
63.500	5379.167
63.800	5691.667
64.100	6170.833
64.400	5258.333
64.700	4875.000
65.000	5170.833
65.300	6075.000
65.600	6800.000
65.900	7866.667
66.200	9016.667
66.500	7129.167
66.800	5420.833
67.100	5279.167
67.400	5287.500
67.700	5679.167
68.000	9579.167
68.300	5954.167
68.600	4116.667
68.900	4179.167
69.200	4337.500
69.500	4150.000
69.800	4158.333
70.100	4383.333
70.400	4212.500
70.700	4212.500
71.000	3883.333
71.300	4154.167
71.600	4012.500
71.900	3966.667
72.200	4379.167
72.500	4654.167
72.800	4633.333
73.100	4958.333
73.400	4329.167
73.700	4179.167
74.000	4345.833
74.300	4437.500
74.600	5016.667
74.900	5379.167
75.200	5679.167
75.500	4641.667
75.800	4291.667
76.100	4258.333
76.400	4200.000
76.700	4295.833
77.000	4345.833
77.300	4462.500
77.600	4337.500
77.900	4612.500
78.200	4408.333
78.500	4400.000
78.800	4133.333
79.100	3883.333
79.400	3920.833
79.700	3900.000
80.000	4341.667
80.300	4241.667
80.600	3925.000
80.900	3966.667
81.200	4045.833
81.500	4087.500
81.800	4441.667
82.100	4379.167
82.400	4641.667
82.700	4900.000
83.000	4883.333
83.300	4575.000
83.600	4741.667
83.900	4600.000
84.200	4716.667
84.500	4812.500
84.800	4633.333
85.100	4375.000
85.400	4183.333
85.700	4262.500
86.000	4337.500
86.300	4370.833
86.600	4387.500
86.900	4491.667
87.200	4583.333
87.500	4387.500
87.800	4375.000
88.100	4479.167
88.400	4220.833
88.700	4704.167
89.000	4883.333
89.300	4883.333
89.600	5550.000
89.900	5200.000
90.000	5270.833

File: ZnOCuCl2_650.xy
5.000	484.000
5.290	468.000
5.580	423.000
5.870	415.000
6.160	438.000
6.450	433.000
6.740	395.000
7.030	396.000
7.320	402.000
7.610	403.000
7.900	390.000
8.190	400.000
8.480	392.000
8.770	387.000
9.060	392.000
9.350	395.000
9.640	426.000
9.930	417.000
10.220	415.000
10.510	408.000
10.800	423.000
11.090	404.000
11.380	452.000
11.670	459.000
11.960	461.000
12.250	450.000
12.540	458.000
12.830	452.000
13.120	461.000
13.410	437.000
13.700	456.000
13.990	451.000
14.280	451.000
14.570	472.000
14.860	484.000
15.150	737.000
15.440	635.000
15.730	504.000
16.020	470.000
16.310	469.000
16.600	458.000
16.890	490.000
17.180	499.000
17.470	478.000
17.760	455.000
18.050	494.000
18.340	516.000
18.630	567.000
18.920	6170.000
19.210	613.000
19.500	527.000
19.790	496.000
20.080	526.000
20.370	514.000
20.660	494.000
20.950	511.000
21.240	477.000
21.530	491.000
21.820	506.000
22.110	484.000
22.400	525.000
22.690	538.000
22.980	817.000
23.270	1972.000
23.560	3963.000
23.850	1155.000
24.140	722.000
24.430	572.000
24.720	565.000
25.010	570.000
25.300	648.000
25.590	2129.000
25.880	901.000
26.170	580.000
26.460	516.000
26.750	671.000
27.040	536.000
27.330	539.000
27.620	536.000
27.910	569.000
28.200	550.000
28.490	632.000
28.780	1263.000
29.070	4710.000
29.360	1077.000
29.650	739.000
29.940	923.000
30.230	4410.000
30.520	842.000
30.810	1471.000
31.100	1218.000
31.390	5316.000
31.680	1855.000
31.970	1912.000
32.260	643.000
32.550	717.000
32.840	565.000
33.130	555.000
33.420	543.000
33.710	549.000
34.000	555.000
34.290	568.000
34.580	718.000
34.870	893.000
35.160	687.000
35.450	3619.000
35.740	2763.000
36.030	864.000
36.320	3019.000
36.610	2539.000
36.900	754.000
37.190	570.000
37.480	597.000
37.770	567.000
38.060	618.000
38.350	858.000
38.640	3110.000
38.930	678.000
39.220	581.000
39.510	589.000
39.800	688.000
40.090	1204.000
40.380	641.000
40.670	590.000
40.960	1241.000
41.250	684.000
41.540	558.000
41.830	536.000
42.120	590.000
42.410	726.000
42.700	1662.000
42.990	884.000
43.280	918.000
43.570	783.000
43.860	681.000
44.150	583.000
44.440	585.000
44.730	860.000
45.020	1619.000
45.310	679.000
45.600	871.000
45.890	665.000
46.180	564.000
46.470	549.000
46.760	668.000
47.050	753.000
47.340	1069.000
47.630	950.000
47.920	653.000
48.210	891.000
48.500	697.000
48.790	813.000
49.080	1278.000
49.370	1425.000
49.660	753.000
49.950	615.000
50.240	765.000
50.530	1053.000
50.820	744.000
51.110	610.000
51.400	621.000
51.690	689.000
51.980	1195.000
52.270	826.000
52.560	760.000
52.850	828.000
53.140	1418.000
53.430	2618.000
53.720	704.000
54.010	686.000
54.300	623.000
54.590	590.000
54.880	615.000
55.170	1298.000
55.460	974.000
55.750	644.000
56.040	1119.000
56.330	1043.000
56.620	1189.000
56.910	864.000
57.200	627.000
57.490	574.000
57.780	536.000
58.070	588.000
58.360	681.000
58.650	739.000
58.940	740.000
59.230	700.000
59.520	662.000
59.810	636.000
60.100	711.000
60.390	703.000
60.680	977.000
60.970	981.000
61.260	651.000
61.550	662.000
61.840	954.000
62.130	908.000
62.420	1192.000
62.710	1779.000
63.000	874.000
63.290	1049.000
63.580	901.000
63.870	1240.000
64.160	1120.000
64.450	759.000
64.740	700.000
65.030	890.000
65.320	1007.000
65.610	769.000
65.900	932.000
66.190	1618.000
66.480	1438.000
66.770	940.000
67.060	864.000
67.350	1009.000
67.640	675.000
67.930	1111.000
68.220	1092.000
68.510	592.000
68.800	552.000
69.090	623.000
69.380	625.000
69.670	625.000
69.960	656.000
70.250	731.000
70.540	624.000
70.830	571.000
71.120	562.000
71.410	555.000
71.700	549.000
71.990	540.000
72.280	589.000
72.570	619.000
72.860	786.000
73.150	837.000
73.440	624.000
73.730	575.000
74.020	627.000
74.310	745.000
74.600	818.000
74.890	718.000
75.180	788.000
75.470	699.000
75.760	663.000
76.050	618.000
76.340	592.000
76.630	615.000
76.920	691.000
77.210	707.000
77.500	648.000
77.790	633.000
78.080	850.000
78.370	705.000
78.660	686.000
78.950	573.000
79.240	544.000
79.530	536.000
79.820	574.000
80.110	561.000
80.400	649.000
80.690	595.000
80.980	522.000
81.270	552.000
81.560	619.000
81.850	634.000
82.140	664.000
82.430	621.000
82.720	805.000
83.010	759.000
83.300	671.000
83.590	674.000
83.880	757.000
84.170	782.000
84.460	798.000
84.750	846.000
85.040	780.000
85.330	624.000
85.620	624.000
85.910	582.000
86.200	631.000
86.490	697.000
86.780	747.000
87.070	661.000
87.360	678.000
87.650	638.000
87.940	638.000
88.230	670.000
88.520	651.000
88.810	759.000
89.100	846.000
89.390	749.000
89.680	745.000
89.970	788.000
90.000	788.000

File: ZnOCuCl2_before.xy
3	272
3.34	235
3.68	180
4.02	160
4.36	202
4.7	197
5.04	223
5.38	235
5.72	283
6.06	261
6.4	287
6.74	298
7.08	306
7.42	352
7.76	384
8.1	367
8.44	432
8.78	403
9.12	418
9.46	433
9.8	521
10.14	461
10.48	541
10.82	535
11.16	611
11.5	1262
11.84	782
12.18	745
12.52	790
12.86	742
13.2	773
13.54	810
13.88	723
14.22	785
14.56	737
14.9	722
15.24	763
15.58	696
15.92	932
16.26	2261
16.6	1213
16.94	911
17.28	858
17.62	864
17.96	823
18.3	716
18.64	744
18.98	776
19.32	705
19.66	717
20	643
20.34	662
20.68	647
21.02	670
21.36	681
21.7	751
22.04	694
22.38	744
22.72	859
23.06	2582
23.4	844
23.74	745
24.08	722
24.42	763
24.76	744
25.1	824
25.44	783
25.78	828
26.12	973
26.46	914
26.8	855
27.14	827
27.48	832
27.82	815
28.16	927
28.5	951
28.84	981
29.18	960
29.52	987
29.86	1064
30.2	1027
30.54	1229
30.88	1464
31.22	1601
31.56	2014
31.9	2023
32.24	3214
32.58	3130
32.92	2224
33.26	1740
33.6	1620
33.94	1714
34.28	1234
34.62	1184
34.96	1427
35.3	1422
35.64	1209
35.98	1218
36.32	1321
36.66	1284
37	1200
37.34	1205
37.68	1239
38.02	1634
38.36	3513
38.7	1490
39.04	1601
39.38	2358
39.72	3978
40.06	2606
40.4	1577
40.74	1490
41.08	1361
41.42	1313
41.76	1173
42.1	1314
42.44	1424
42.78	1645
43.12	1703
43.46	1377
43.8	1290
44.14	1427
44.48	1338
44.82	1432
45.16	1456
45.5	1586
45.84	1604
46.18	1378
46.52	1385
46.86	1589
47.2	1606
47.54	1455
47.88	1522
48.22	1503
48.56	1439
48.9	1350
49.24	1476
49.58	1545
49.92	1995
50.26	2056
50.6	1660
50.94	1575
51.28	1532
51.62	1654
51.96	1657
52.3	1812
52.64	1617
52.98	1654
53.32	2036
53.66	2161
54	1774
54.34	1590
54.68	1600
55.02	1725
55.36	1525
55.7	1469
56.04	1606
56.38	1790
56.72	1619
57.06	1540
57.4	1531
57.74	1535
58.08	1512
58.42	1631
58.76	1867
59.1	1552
59.44	1560
59.78	1646
60.12	1764
60.46	1530
60.8	1573
61.14	1843
61.48	1847
61.82	1895
62.16	1880
62.5	1598
62.84	1508
63.18	1530
63.52	1495
63.86	1627
64.2	1507
64.54	1549
64.88	1463
65.22	1453
65.56	1519
65.9	1582
66.24	1544
66.58	1483
66.92	1527
67.26	1517
67.6	1790
67.94	1773
68.28	1679
68.62	1916
68.96	1718
69.3	1655
69.64	1678
69.98	1503
70.32	1413
70.66	1404
71	1464
71.34	1497
71.68	1449
72.02	1467
72.36	1493
72.7	1443
73.04	1470
73.38	1584
73.72	1483
74.06	1610
74.4	1596
74.74	1543
75.08	1504
75.42	1486
75.76	1427
76.1	1572
76.44	1523
76.78	1481
77.12	1454
77.46	1493
77.8	1436
78.14	1523
78.48	1501
78.82	1346
79.16	1321
79.5	1293
79.84	1344
80.18	1339
80.52	1296
80.86	1348
81.2	1344
81.54	1345
81.88	1419
82.22	1353
82.56	1329
82.9	1363
83.24	1297
83.58	1336
83.92	1345
84.26	1370
84.6	1341
84.94	1426
85.28	1419
85.62	1449
85.96	1476
86.3	1378
86.64	1347
86.98	1453
87.32	1398
87.66	1416
88	1480
88.34	1420
88.68	1427
89.02	1432
89.36	1349
89.7	1364
90.04	1406
90.38	1270
90.72	1393
91.06	1387
91.4	1340
91.74	1422
92.08	1426
92.42	1421
92.76	1426
93.1	1430
93.44	1443
93.78	1478
94.12	1354
94.46	1343
94.8	1311
95.14	1439
95.48	1354
95.82	1354
96.16	1421
96.5	1460
96.84	1470
97.18	1415
97.52	1413
97.86	1456
98.2	1382
98.54	1430
98.88	1378
99.22	1393
99.56	1454
99.9	1420
100	1437

File: ZnOFeCl3_550.xy
5.000	5875.000
5.300	5550.000
5.600	5483.333
5.900	5454.167
6.200	5433.333
6.500	5220.833
6.800	5583.333
7.100	5512.500
7.400	5383.333
7.700	5583.333
8.000	5216.667
8.300	5525.000
8.600	5408.333
8.900	5395.833
9.200	5429.167
9.500	5300.000
9.800	5666.667
10.100	5754.167
10.400	6025.000
10.700	5870.833
11.000	6062.500
11.300	6250.000
11.600	6316.667
11.900	6470.833
12.200	6658.333
12.500	6870.833
12.800	6691.667
13.100	7004.167
13.400	6875.000
13.700	6950.000
14.000	6858.333
14.300	7104.167
14.600	7300.000
14.900	7112.500
15.200	7216.667
15.500	7287.500
15.800	7362.500
16.100	7450.000
16.400	7520.833
16.700	7566.667
17.000	7600.000
17.300	7637.500
17.600	8004.167
17.900	7908.333
18.200	8087.500
18.500	7875.000
18.800	8129.167
19.100	8125.000
19.400	8145.833
19.700	8387.500
20.000	8300.000
20.300	8491.667
20.600	8162.500
20.900	8304.167
21.200	8608.333
21.500	8633.333
21.800	8741.667
22.100	8741.667
22.400	8391.667
22.700	8837.500
23.000	8712.500
23.300	8825.000
23.600	8933.333
23.900	9720.833
24.200	10741.667
24.500	9025.000
24.800	9300.000
25.100	8870.833
25.400	8941.667
25.700	9037.500
26.000	9000.000
26.300	9066.667
26.600	9262.500
26.900	9108.333
27.200	8879.167
27.500	9075.000
27.800	9125.000
28.100	9145.833
28.400	9016.667
28.700	9225.000
29.000	9154.167
29.300	9258.333
29.600	9470.833
29.900	10216.667
30.200	9025.000
30.500	9245.833
30.800	9191.667
31.100	9216.667
31.400	9395.833
31.700	22716.667
32.000	9583.333
32.300	9416.667
32.600	9520.833
32.900	12495.833
33.200	17187.500
33.500	9658.333
33.800	9320.833
34.100	9554.167
34.400	9904.167
34.700	9604.167
35.000	10279.167
35.300	12566.667
35.600	20395.833
35.900	10062.500
36.200	11995.833
36.500	9275.000
36.800	9625.000
37.100	9170.833
37.400	9108.333
37.700	9416.667
38.000	9150.000
38.300	9233.333
38.600	9166.667
38.900	9262.500
39.200	9587.500
39.500	9295.833
39.800	9475.000
40.100	9204.167
40.400	9270.833
40.700	10891.667
41.000	10400.000
41.300	9525.000
41.600	9337.500
41.900	9420.833
42.200	9183.333
42.500	9220.833
42.800	9704.167
43.100	9270.833
43.400	9408.333
43.700	9145.833
44.000	9083.333
44.300	9354.167
44.600	9291.667
44.900	8987.500
45.200	9320.833
45.500	9208.333
45.800	8916.667
46.100	8983.333
46.400	9208.333
46.700	9179.167
47.000	9033.333
47.300	9183.333
47.600	9608.333
47.900	9337.500
48.200	9125.000
48.500	9458.333
48.800	9433.333
49.100	9566.667
49.400	13820.833
49.700	10033.333
50.000	9470.833
50.300	9312.500
50.600	9037.500
50.900	9200.000
51.200	8920.833
51.500	9125.000
51.800	9341.667
52.100	9150.000
52.400	9362.500
52.700	9291.667
53.000	9591.667
53.300	9154.167
53.600	9537.500
53.900	12612.500
54.200	11404.167
54.500	9666.667
54.800	9316.667
55.100	9450.000
55.400	8900.000
55.700	9300.000
56.000	9254.167
56.300	9408.333
56.600	10966.667
56.900	9416.667
57.200	9262.500
57.500	10266.667
57.800	9570.833
58.100	9208.333
58.400	9045.833
58.700	9012.500
59.000	8966.667
59.300	9295.833
59.600	9066.667
59.900	9058.333
60.200	8983.333
60.500	9137.500
60.800	9166.667
61.100	9129.167
61.400	9025.000
61.700	9404.167
62.000	10437.500
62.300	12775.000
62.600	10750.000
62.900	9825.000
63.200	9304.167
63.500	9425.000
63.800	10870.833
64.100	11745.833
64.400	9720.833
64.700	9095.833
65.000	9141.667
65.300	9483.333
65.600	9270.833
65.900	9187.500
66.200	9304.167
66.500	9391.667
66.800	9029.167
67.100	9237.500
67.400	9070.833
67.700	9233.333
68.000	9216.667
68.300	9150.000
68.600	9245.833
68.900	9245.833
69.200	9320.833
69.500	9441.667
69.800	9195.833
70.100	9304.167
70.400	8991.667
70.700	9025.000
71.000	9133.333
71.300	9345.833
71.600	9137.500
71.900	9937.500
72.200	9629.167
72.500	9362.500
72.800	9245.833
73.100	9325.000
73.400	9270.833
73.700	9212.500
74.000	9204.167
74.300	9062.500
74.600	9375.000
74.900	9375.000
75.200	9895.833
75.500	9670.833
75.800	9095.833
76.100	9075.000
76.400	9066.667
76.700	9116.667
77.000	9112.500
77.300	9100.000
77.600	9512.500
77.900	9195.833
78.200	9175.000
78.500	9150.000
78.800	9279.167
79.100	8962.500
79.400	9304.167
79.700	9166.667
80.000	9275.000
80.300	9433.333
80.600	9612.500
80.900	9675.000
81.200	8945.833
81.500	8687.500
81.800	9175.000
82.100	9154.167
82.400	9216.667
82.700	9337.500
83.000	9458.333
83.300	9041.667
83.600	9133.333
83.900	8883.333
84.200	9120.833
84.500	9212.500
84.800	9666.667
85.100	9933.333
85.400	9429.167
85.700	9395.833
86.000	9175.000
86.300	8858.333
86.600	9350.000
86.900	9433.333
87.200	9258.333
87.500	8970.833
87.800	9275.000
88.100	9100.000
88.400	9700.000
88.700	9612.500
89.000	9208.333
89.300	8733.333
89.600	9129.167
89.900	9191.667
90.000	8983.333