Folder: xray_python/xrd/raw

File: CuOCuCl2.asc
*TYPE		=  Raw
*CLASS		=  ASCII CLASS
*SAMPLE		=  CuOCuCl2
*COMMENT	=
*FNAME		=  CuOCuCl2_Theta_2-Theta.asc
*DATE		=  03-Mar-17 15:36

*GROUP_COUNT	=  1
*GONIO		=  MiniFlex 300/600 +, 150
*ATTACHMENT	=  ASC-6
*ASC		=  0, 0, 0.000000, 0.000000
*FILTER		=  K-beta(x2)
*C_MONOCHRO	=  None, 0.000000
*SLIT_NAME	=  0, IHS
*SLIT_NAME	=  1, DS +
*SLIT_NAME	=  2, SS
*SLIT_NAME	=  3, RS
*COUNTER	=  D/teX Ultra, 0
*POS_FORMAT	=  0
*SCAN_AXIS	=  2theta/theta
*MEAS_MODE	=  Continuous Scanning
*TARGET		=  29
*XRAY_CHAR	=  K-ALPHA
*WAVE_LENGTH1	=  1.54059
*WAVE_LENGTH2	=  1.54441
*THICKNESS	=  0, 0.000000
*MU		=  0, 0.000000
*SCAN_MODE	=  2theta/theta
*SPEED_DIM	=  sec./step
*XUNIT		=  deg.
*YUNIT		=  counts
*SCALE_MODE	=  1
*REP_COUNT	=  0
*SE_COUNT	=  0
*STD_MATERIAL	=  Unknown, Unknown, 0.000000, 0.000000, 0.000000, 0.000000, 0.000000, 0.000000
*LATT_CONS	=  0, Unknown, Unknown, 0.000000, 0.000000, 0.000000, 0.000000, 0.000000, 0.000000
*SEC_COUNT	=  1
*TSPEC_SIZE	=  0
*EXTRA_SIZE	=  0
*MEMO		=

*BEGIN
*GROUP		=  0
*START		=  5
*STOP		=  90
*STEP		=  0.02
*OFFSET		=  0.000000
*SPEED		=  0.24
*SLIT_SPEC	=  0, 10.0mm, 10, 0.000000
*SLIT_SPEC	=  1, 0.625deg, 0.625, 0.000000
*SLIT_SPEC	=  2, 13.0mm, 13, 0.000000
*SLIT_SPEC	=  3, 13.0mm, 13, 0.000000
*KV		=  40
*MA		=  15
*LOW		=  0.000000
*HIGH		=  0.000000
*CTEMPER	=  0, 0.000000
*CTEMPER	=  1, 0.000000
*CTEMPER	=  2, 0.000000
*PAREX		=  0, 0.000000
*PAREX		=  1, 0.000000
*PAREX		=  2, 0.000000
*PAREX		=  3, 0.000000
*PAREX		=  4, 0.000000
*PAREX		=  5, 0.000000
*PAREX		=  6, 0.000000
*PAREX		=  7, 0.000000
*PAREX		=  8, 0.000000
*PAREX		=  9, 0.000000
*PAREX		=  10, 0.000000
*PAREX		=  11, 0.000000
*PAREX		=  12, 0.000000
*PAREX		=  13, 0.000000
*PAREX		=  14, 0.000000
*PAREX		=  15, 0.000000
*FULL_SCALE	=  201095
*INDEX		=  0, 0, 0
*COUNT		=  4251
345, 331, 335, 338
333, 302, 280, 267
323, 313, 317, 323
302, 301, 279, 290
300, 292, 284, 272
255, 268, 270, 264
274, 264, 259, 268
261, 235, 254, 280
236, 259, 270, 257
269, 257, 237, 244
263, 266, 265, 261
276, 260, 252, 238
254, 264, 274, 255
272, 255, 259, 281
259, 272, 270, 284
277, 289, 277, 272
279, 288, 272, 269
309, 287, 277, 294
285, 290, 280, 288
277, 277, 276, 272
280, 289, 290, 278
254, 240, 246, 264
282, 252, 268, 278
274, 268, 257, 257
249, 251, 259, 255
241, 239, 272, 268
244, 234, 251, 253
249, 258, 247, 254
223, 236, 240, 219
235, 219, 226, 241
224, 224, 258, 247
227, 235, 241, 229
230, 233, 232, 220
222, 240, 239, 219
217, 230, 239, 226
215, 216, 211, 221
222, 209, 222, 208
210, 218, 231, 239
203, 227, 243, 242
220, 209, 202, 204
206, 200, 216, 211
206, 199, 198, 217
209, 205, 200, 202
212, 199, 214, 211
242, 252, 249, 242
179, 190, 191, 195
202, 207, 200, 199
206, 205, 198, 198
204, 203, 200, 208
198, 204, 198, 198
183, 161, 169, 180
182, 194, 199, 194
196, 199, 187, 173
186, 192, 193, 196
199, 191, 202, 208
189, 196, 187, 177
177, 176, 183, 187
184, 191, 196, 203
184, 185, 201, 207
187, 191, 216, 225
193, 203, 188, 194
176, 170, 164, 175
173, 172, 170, 177
184, 176, 174, 179
204, 188, 181, 186
197, 205, 194, 177
194, 180, 175, 183
174, 185, 172, 169
187, 193, 179, 166
185, 192, 195, 182
197, 187, 193, 205
176, 191, 185, 174
189, 168, 158, 165
200, 210, 211, 201
214, 206, 212, 216
210, 210, 207, 204
198, 206, 216, 213
200, 199, 200, 200
192, 192, 202, 205
253, 259, 251, 244
241, 257, 262, 256
361, 359, 348, 364
486, 521, 547, 559
1461, 1770, 2142, 2624
18397, 15135, 12052, 9029
683, 614, 565, 556
370, 370, 376, 377
322, 316, 296, 277
304, 285, 277, 295
320, 330, 332, 319
403, 404, 402, 424
651, 719, 789, 849
15879, 17479, 17805, 16966
902, 811, 753, 718
530, 517, 523, 533
572, 576, 605, 618
854, 877, 878, 883
2309, 2718, 3355, 4235
32424, 27952, 23625, 19043
1211, 1128, 1034, 946
500, 474, 466, 478
406, 397, 389, 367
358, 335, 327, 323
319, 319, 295, 286
304, 300, 298, 314
366, 367, 402, 444
347, 344, 337, 325
244, 243, 248, 245
243, 239, 230, 227
231, 235, 233, 226
225, 215, 212, 226
227, 227, 221, 217
206, 205, 208, 195
214, 204, 217, 217
188, 192, 203, 204
197, 203, 180, 171
194, 181, 175, 174
186, 174, 171, 182
169, 178, 184, 191
186, 199, 209, 228
194, 191, 190, 181
179, 183, 164, 176
178, 170, 172, 157
159, 160, 157, 169
166, 164, 167, 171
178, 180, 174, 188
182, 188, 169, 174
169, 159, 142, 155
174, 181, 185, 179
186, 194, 201, 205
196, 190, 185, 195
228, 224, 237, 248
456, 497, 547, 621
7423, 7882, 7858, 7357
817, 703, 604, 538
242, 241, 238, 239
196, 208, 207, 209
229, 227, 232, 232
180, 175, 183, 188
168, 157, 146, 152
157, 158, 158, 161
163, 168, 169, 158
168, 164, 158, 160
174, 171, 171, 173
166, 154, 145, 153
157, 160, 145, 153
155, 160, 164, 159
163, 169, 169, 164
148, 161, 155, 156
152, 171, 160, 159
166, 170, 181, 184
170, 166, 163, 169
161, 156, 171, 171
161, 156, 158, 170
151, 155, 157, 150
177, 184, 196, 200
203, 201, 197, 188
203, 214, 220, 208
240, 228, 226, 237
267, 287, 266, 261
491, 532, 586, 635
5087, 6372, 7768, 9158
4195, 3344, 2618, 2007
411, 382, 371, 356
241, 242, 236, 237
213, 233, 247, 230
194, 204, 208, 210
197, 210, 205, 201
189, 189, 197, 202
180, 182, 178, 194
181, 193, 187, 172
173, 172, 186, 200
165, 180, 188, 184
185, 195, 197, 189
209, 210, 206, 201
202, 203, 196, 204
231, 225, 207, 210
242, 242, 241, 266
252, 251, 247, 243
310, 343, 350, 366
965, 1076, 1188, 1385
8345, 7613, 6888, 6397
1100, 975, 838, 717
325, 324, 310, 293
264, 248, 239, 240
224, 212, 213, 232
211, 222, 197, 202
198, 197, 184, 199
188, 213, 211, 211
235, 222, 219, 230
265, 253, 255, 262
357, 377, 384, 419
1437, 1274, 1192, 1172
387, 365, 345, 326
287, 292, 287, 271
380, 388, 417, 414
1094, 1247, 1499, 1753
5680, 5195, 4851, 4712
961, 807, 744, 653
441, 472, 465, 453
2099, 2438, 2836, 3267
2054, 1837, 1660, 1409
319, 299, 297, 273
233, 208, 192, 217
190, 204, 190, 197
197, 208, 220, 221
178, 191, 187, 196
180, 188, 184, 188
184, 172, 163, 143
175, 182, 162, 170
202, 212, 182, 206
550, 643, 690, 693
378, 358, 341, 291
177, 180, 186, 174
148, 152, 166, 164
172, 178, 159, 165
165, 171, 153, 145
161, 161, 175, 168
155, 152, 158, 168
166, 160, 164, 177
181, 173, 155, 155
136, 153, 155, 153
143, 158, 157, 153
186, 163, 174, 176
281, 297, 304, 337
1150, 1025, 924, 899
418, 333, 307, 283
174, 152, 167, 162
124, 150, 129, 140
149, 138, 131, 132
142, 151, 152, 144
126, 145, 145, 152
150, 146, 138, 136
140, 146, 142, 143
134, 149, 143, 131
132, 145, 135, 138
156, 147, 150, 137
151, 158, 158, 157
237, 237, 247, 258
537, 469, 429, 407
228, 197, 214, 197
154, 154, 155, 147
134, 146, 131, 136
135, 126, 135, 137
133, 145, 141, 128
128, 125, 131, 132
119, 147, 143, 143
128, 130, 141, 138
126, 135, 127, 121
124, 132, 140, 121
105, 127, 123, 138
134, 126, 129, 124
120, 112, 119, 134
149, 154, 127, 134
125, 131, 139, 134
138, 138, 141, 122
140, 129, 148, 151
152, 127, 141, 138
132, 130, 138, 133
154, 136, 131, 124
140, 142, 125, 143
147, 168, 152, 160
169, 174, 175, 191
261, 300, 287, 304
1090, 1218, 1365, 1537
1214, 1224, 1260, 1305
1219, 1219, 1219
*END

*EOF

File: ZnOCuCl2.asc
*TYPE		=  Raw
*CLASS		=  ASCII CLASS
*SAMPLE		=  ZnOCuCl2
*COMMENT	=
*FNAME		=  ZnOCuCl2_Theta_2-Theta.asc
*DATE		=  03-Mar-17 15:18

*GROUP_COUNT	=  1
*GONIO		=  MiniFlex 300/600 +, 150
*ATTACHMENT	=  ASC-6
*ASC		=  0, 0, 0.000000, 0.000000
*FILTER		=  K-beta(x2)
*C_MONOCHRO	=  None, 0.000000
*SLIT_NAME	=  0, IHS
*SLIT_NAME	=  1, DS +
*SLIT_NAME	=  2, SS
*SLIT_NAME	=  3, RS
*COUNTER	=  D/teX Ultra, 0
*POS_FORMAT	=  0
*SCAN_AXIS	=  2theta/theta
*MEAS_MODE	=  Continuous Scanning
*TARGET		=  29
*XRAY_CHAR	=  K-ALPHA
*WAVE_LENGTH1	=  1.54059
*WAVE_LENGTH2	=  1.54441
*THICKNESS	=  0, 0.000000
*MU		=  0, 0.000000
*SCAN_MODE	=  2theta/theta
*SPEED_DIM	=  sec./step
*XUNIT		=  deg.
*YUNIT		=  counts
*SCALE_MODE	=  1
*REP_COUNT	=  0
*SE_COUNT	=  0
*STD_MATERIAL	=  Unknown, Unknown, 0.000000, 0.000000, 0.000000, 0.000000, 0.000000, 0.000000
*LATT_CONS	=  0, Unknown, Unknown, 0.000000, 0.000000, 0.000000, 0.000000, 0.000000, 0.000000
*SEC_COUNT	=  1
*TSPEC_SIZE	=  0
*EXTRA_SIZE	=  0
*MEMO		=

*BEGIN
*GROUP		=  0
*START		=  5
*STOP		=  90
*STEP		=  0.02
*OFFSET		=  0.000000
*SPEED		=  0.24
*SLIT_SPEC	=  0, 10.0mm, 10, 0.000000
*SLIT_SPEC	=  1, 0.625deg, 0.625, 0.000000
*SLIT_SPEC	=  2, 13.0mm, 13, 0.000000
*SLIT_SPEC	=  3, 13.0mm, 13, 0.000000
*KV		=  40
*MA		=  15
*LOW		=  0.000000
*HIGH		=  0.000000
*CTEMPER	=  0, 0.000000
*CTEMPER	=  1, 0.000000
*CTEMPER	=  2, 0.000000
*PAREX		=  0, 0.000000
*PAREX		=  1, 0.000000
*PAREX		=  2, 0.000000
*PAREX		=  3, 0.000000
*PAREX		=  4, 0.000000
*PAREX		=  5, 0.000000
*PAREX		=  6, 0.000000
*PAREX		=  7, 0.000000
*PAREX		=  8, 0.000000
*PAREX		=  9, 0.000000
*PAREX		=  10, 0.000000
*PAREX		=  11, 0.000000
*PAREX		=  12, 0.000000
*PAREX		=  13, 0.000000
*PAREX		=  14, 0.000000
*PAREX		=  15, 0.000000
*FULL_SCALE	=  41535
*INDEX		=  0, 0, 0
*COUNT		=  4251
633, 597, 615, 638
602, 629, 636, 644
611, 599, 612, 603
594, 592, 610, 603
538, 554, 572, 573
560, 569, 586, 588
580, 573, 552, 554
548, 553, 540, 531
578, 551, 574, 575
544, 544, 587, 568
565, 570, 545, 543
573, 561, 536, 519
563, 579, 565, 529
558, 561, 556, 541
571, 532, 540, 565
564, 586, 572, 576
555, 557, 563, 567
583, 596, 564, 570
585, 597, 596, 614
623, 609, 589, 606
592, 608, 620, 617
640, 626, 621, 609
608, 592, 605, 613
630, 634, 647, 647
647, 679, 672, 628
667, 655, 664, 658
631, 639, 660, 670
614, 642, 634, 640
649, 631, 620, 642
665, 669, 679, 656
704, 681, 698, 689
726, 726, 719, 713
1755, 1765, 1741, 1697
701, 697, 734, 719
695, 689, 709, 711
720, 723, 685, 669
664, 666, 683, 691
689, 708, 699, 703
717, 701, 717, 705
728, 733, 728, 721
727, 715, 691, 681
699, 687, 699, 739
775, 781, 818, 840
1189, 1350, 1620, 1981
1608, 1346, 1164, 1052
818, 776, 762, 742
767, 756, 757, 787
755, 771, 769, 782
744, 759, 771, 745
771, 774, 742, 777
792, 780, 737, 730
786, 770, 741, 779
792, 773, 777, 783
798, 775, 780, 776
761, 797, 816, 826
819, 808, 837, 870
1108, 1125, 1214, 1309
1750, 1729, 1723, 1705
3298, 3222, 3079, 2923
2768, 3057, 3256, 3241
1060, 1021, 1001, 1007
928, 903, 895, 922
956, 967, 942, 958
1048, 1061, 1100, 1130
1822, 1913, 2007, 2041
1861, 1704, 1589, 1437
915, 900, 921, 957
878, 854, 875, 901
916, 905, 932, 971
865, 865, 869, 886
860, 846, 872, 877
879, 875, 872, 875
914, 923, 918, 911
986, 995, 982, 1013
1533, 1625, 1726, 1838
3062, 3060, 3009, 2975
2105, 2127, 2082, 1961
1492, 1474, 1469, 1444
1898, 2225, 2584, 2937
3150, 2840, 2590, 2385
1489, 1506, 1477, 1495
2751, 2766, 2751, 2725
3061, 3185, 3342, 3523
2730, 2652, 2621, 2605
2702, 2518, 2325, 2160
1099, 1097, 1102, 1127
1402, 1317, 1175, 1094
931, 941, 921, 898
906, 943, 947, 928
890, 873, 863, 897
916, 906, 921, 961
958, 951, 939, 947
1008, 1034, 1050, 1058
1161, 1176, 1199, 1183
1370, 1369, 1437, 1457
5617, 6746, 7830, 8307
2631, 2665, 2642, 2583
1680, 1642, 1650, 1643
2670, 2618, 2540, 2429
3238, 3021, 2791, 2493
1049, 1035, 1062, 1050
996, 1013, 997, 986
1016, 1031, 1022, 1001
1114, 1126, 1145, 1171
1455, 1486, 1578, 1660
5721, 6074, 6146, 5987
1895, 1824, 1754, 1636
1072, 1091, 1071, 1059
1015, 1042, 1080, 1098
1164, 1156, 1178, 1246
1237, 1262, 1265, 1203
1039, 1023, 1033, 1075
1128, 1160, 1200, 1295
1603, 1562, 1447, 1300
1013, 980, 960, 949
969, 976, 1011, 1020
1107, 1098, 1088, 1133
1254, 1314, 1345, 1361
1464, 1412, 1368, 1347
1192, 1228, 1209, 1208
1193, 1175, 1160, 1127
1051, 1029, 1010, 1037
952, 956, 969, 991
951, 1001, 1064, 1028
1207, 1197, 1238, 1265
1518, 1547, 1548, 1575
1184, 1135, 1132, 1127
1199, 1153, 1156, 1130
1004, 1001, 997, 987
977, 998, 992, 978
963, 970, 983, 996
1097, 1077, 1097, 1113
1244, 1245, 1250, 1258
1228, 1227, 1260, 1266
1090, 1096, 1070, 1068
1202, 1270, 1302, 1288
1361, 1388, 1404, 1456
1516, 1467, 1470, 1436
1653, 1647, 1620, 1587
1297, 1268, 1247, 1229
1132, 1127, 1140, 1127
1133, 1127, 1130, 1119
1188, 1192, 1181, 1173
1156, 1121, 1125, 1126
1103, 1087, 1076, 1093
1078, 1075, 1101, 1111
1200, 1250, 1268, 1288
1328, 1298, 1298, 1326
1374, 1376, 1345, 1319
1288, 1305, 1319, 1282
1546, 1594, 1648, 1731
3050, 3164, 3180, 3223
1709, 1611, 1542, 1463
1140, 1137, 1130, 1104
999, 986, 984, 995
1045, 1032, 1057, 1035
1211, 1262, 1284, 1278
1525, 1501, 1535, 1542
1200, 1190, 1198, 1200
1249, 1285, 1320, 1328
1405, 1431, 1405, 1413
1310, 1293, 1304, 1337
1244, 1208, 1162, 1140
1050, 1063, 1030, 1014
988, 1009, 993, 971
970, 955, 958, 951
1123, 1114, 1161, 1203
1215, 1215, 1166, 1138
1067, 1064, 1070, 1069
1112, 1130, 1101, 1098
1033, 1066, 1068, 1069
1014, 1036, 1066, 1050
1011, 1035, 1015, 990
1062, 1061, 1053, 1072
1289, 1318, 1344, 1380
1322, 1308, 1338, 1297
1313, 1318, 1424, 1490
1505, 1458, 1464, 1417
1299, 1269, 1262, 1306
1390, 1444, 1492, 1480
1852, 1871, 1825, 1864
1494, 1448, 1452, 1446
1403, 1393, 1357, 1368
1240, 1284, 1260, 1272
1574, 1532, 1517, 1546
1464, 1425, 1436, 1350
1182, 1163, 1174, 1171
1173, 1205, 1171, 1188
1453, 1445, 1458, 1463
1413, 1441, 1528, 1516
1857, 1861, 1864, 1870
2129, 2172, 2233, 2216
1809, 1752, 1720, 1711
1298, 1311, 1301, 1300
1277, 1267, 1266, 1253
1269, 1242, 1224, 1237
1436, 1427, 1462, 1496
2234, 2128, 2048, 1924
1159, 1164, 1163, 1140
1064, 1030, 1004, 1060
976, 1015, 1048, 996
1000, 1007, 1014, 983
1043, 1025, 989, 1042
1013, 1039, 1016, 1067
1041, 1019, 1034, 1054
980, 981, 941, 995
986, 1001, 969, 909
933, 971, 978, 997
979, 962, 963, 930
924, 952, 956, 938
1051, 1043, 1070, 1097
1108, 1071, 1079, 1067
1107, 1175, 1103, 1129
1134, 1155, 1100, 1109
1083, 1034, 1009, 1007
977, 1002, 1052, 1060
1046, 1058, 1025, 1048
1113, 1118, 1152, 1151
1158, 1206, 1189, 1247
1388, 1347, 1452, 1455
1225, 1221, 1176, 1166
1029, 995, 1046, 1066
984, 995, 967, 1022
1024, 1059, 1008, 1045
1043, 1031, 1020, 1011
1043, 1039, 986, 1020
1051, 1022, 977, 997
1058, 1002, 1023, 1024
1116, 1077, 1082, 1136
1118, 1072, 1104, 1060
1014, 1030, 1057, 988
987, 1007, 1006, 985
921, 937, 971, 956
1001, 958, 932, 950
959, 988, 996, 992
1020, 1042, 1036, 1057
980, 989, 1023, 980
931, 944, 925, 952
949, 945, 971, 1004
917, 981, 1001, 1000
1066, 1077, 1040, 1035
1018, 1043, 1034, 1057
1083, 1122, 1108, 1089
1224, 1192, 1223, 1162
1163, 1113, 1145, 1093
1082, 1097, 1091, 1140
1133, 1101, 1148, 1157
1111, 1100, 1116, 1145
1171, 1108, 1102, 1068
1154, 1162, 1142, 1143
1119, 1162, 1111, 1076
1033, 1031, 1044, 1013
1004, 1005, 1109, 1023
1061, 1011, 1041, 1032
1052, 1049, 1063, 1029
1053, 1074, 1096, 1065
1046, 1074, 1073, 1070
992, 1055, 1069, 1064
1053, 1023, 1050, 983
993, 1004, 1057, 1047
1075, 1016, 1011, 1051
1025, 1083, 1055, 1038
1088, 1136, 1154, 1161
1144, 1175, 1196, 1214
1280, 1247, 1239, 1269
1287, 1318, 1347, 1259
1265, 1265, 1265
*END

*EOF

File: ZnOFeCl3.asc
*TYPE		=  Raw
*CLASS		=  ASCII CLASS
*SAMPLE		=  ZnOFeCl3
*COMMENT	=
*FNAME		=  ZnOFeCl3_Theta_2-Theta.asc
*DATE		=  03-Mar-17 15:55

*GROUP_COUNT	=  1
*GONIO		=  MiniFlex 300/600 +, 150
*ATTACHMENT	=  ASC-6
*ASC		=  0, 0, 0.000000, 0.000000
*FILTER		=  K-beta(x2)
*C_MONOCHRO	=  None, 0.000000
*SLIT_NAME	=  0, IHS
*SLIT_NAME	=  1, DS +
*SLIT_NAME	=  2, SS
*SLIT_NAME	=  3, RS
*COUNTER	=  D/teX Ultra, 0
*POS_FORMAT	=  0
*SCAN_AXIS	=  2theta/theta
*MEAS_MODE	=  Continuous Scanning
*TARGET		=  29
*XRAY_CHAR	=  K-ALPHA
*WAVE_LENGTH1	=  1.54059
*WAVE_LENGTH2	=  1.54441
*THICKNESS	=  0, 0.000000
*MU		=  0, 0.000000
*SCAN_MODE	=  2theta/theta
*SPEED_DIM	=  sec./step
*XUNIT		=  deg.
*YUNIT		=  counts
*SCALE_MODE	=  1
*REP_COUNT	=  0
*SE_COUNT	=  0
*STD_MATERIAL	=  Unknown, Unknown, 0.000000, 0.000000, 0.000000, 0.000000, 0.000000, 0.000000
*LATT_CONS	=  0, Unknown, Unknown, 0.000000, 0.000000, 0.000000, 0.000000, 0.000000, 0.000000
*SEC_COUNT	=  1
*TSPEC_SIZE	=  0
*EXTRA_SIZE	=  0
*MEMO		=

*BEGIN
*GROUP		=  0
*START		=  5
*STOP		=  90
*STEP		=  0.02
*OFFSET		=  0.000000
*SPEED		=  0.24
*SLIT_SPEC	=  0, 10.0mm, 10, 0.000000
*SLIT_SPEC	=  1, 0.625deg, 0.625, 0.000000
*SLIT_SPEC	=  2, 13.0mm, 13, 0.000000
*SLIT_SPEC	=  3, 13.0mm, 13, 0.000000
*KV		=  40
*MA		=  15
*LOW		=  0.000000
*HIGH		=  0.000000
*CTEMPER	=  0, 0.000000
*CTEMPER	=  1, 0.000000
*CTEMPER	=  2, 0.000000
*PAREX		=  0, 0.000000
*PAREX		=  1, 0.000000
*PAREX		=  2, 0.000000
*PAREX		=  3, 0.000000
*PAREX		=  4, 0.000000
*PAREX		=  5, 0.000000
*PAREX		=  6, 0.000000
*PAREX		=  7, 0.000000
*PAREX		=  8, 0.000000
*PAREX		=  9, 0.000000
*PAREX		=  10, 0.000000
*PAREX		=  11, 0.000000
*PAREX		=  12, 0.000000
*PAREX		=  13, 0.000000
*PAREX		=  14, 0.000000
*PAREX		=  15, 0.000000
*FULL_SCALE	=  31120
*INDEX		=  0, 0, 0
*COUNT		=  4251
1410, 1380, 1347, 1319
1329, 1311, 1317, 1371
1341, 1298, 1297, 1317
1296, 1294, 1304, 1247
1319, 1291, 1311, 1330
1278, 1281, 1318, 1303
1275, 1282, 1283, 1263
1321, 1276, 1283, 1315
1248, 1272, 1262, 1303
1292, 1279, 1323, 1312
1293, 1267, 1305, 1286
1333, 1318, 1277, 1254
1318, 1287, 1300, 1295
1387, 1321, 1303, 1320
1298, 1272, 1266, 1288
1360, 1315, 1364, 1369
1363, 1371, 1395, 1385
1357, 1373, 1431, 1430
1465, 1447, 1428, 1427
1480, 1500, 1517, 1436
1531, 1564, 1527, 1534
1550, 1574, 1569, 1566
1509, 1498, 1540, 1555
1549, 1577, 1567, 1618
1579, 1578, 1606, 1611
1626, 1599, 1634, 1629
1632, 1671, 1704, 1654
1643, 1662, 1683, 1668
1662, 1672, 1646, 1693
1679, 1705, 1760, 1730
1752, 1691, 1700, 1706
1668, 1707, 1735, 1735
1785, 1750, 1757, 1740
1808, 1770, 1803, 1789
1821, 1864, 1843, 1833
1785, 1822, 1838, 1825
1823, 1818, 1802, 1797
1819, 1821, 1801, 1824
1866, 1897, 1872, 1862
1816, 1870, 1933, 1926
1828, 1860, 1851, 1891
2017, 2041, 1979, 1976
1900, 1911, 1940, 1890
1927, 1941, 1951, 1984
1981, 1950, 1969, 1996
1955, 1960, 1962, 1996
1975, 1953, 1947, 1946
2003, 1976, 1968, 1990
2048, 2044, 2036, 2031
2008, 2018, 2025, 2027
2077, 2055, 1984, 1965
2015, 2040, 1982, 2028
1990, 2015, 2053, 2061
2033, 2044, 2054, 2037
2037, 2049, 2078, 2049
2048, 2110, 2131, 2105
2033, 2075, 2151, 2099
2112, 2152, 2125, 2118
2073, 2107, 2144, 2170
2289, 2333, 2418, 2527
2578, 2401, 2353, 2318
2144, 2143, 2109, 2091
2167, 2132, 2107, 2144
2127, 2135, 2120, 2119
2152, 2150, 2146, 2177
2110, 2132, 2182, 2190
2175, 2175, 2171, 2176
2228, 2274, 2263, 2251
2141, 2164, 2164, 2181
2195, 2186, 2116, 2131
2179, 2179, 2170, 2162
2167, 2190, 2188, 2178
2205, 2212, 2195, 2195
2132, 2159, 2164, 2156
2157, 2214, 2236, 2158
2197, 2224, 2194, 2190
2178, 2165, 2167, 2168
2228, 2257, 2269, 2301
2339, 2321, 2286, 2253
2162, 2162, 2197, 2187
2222, 2206, 2189, 2168
2246, 2207, 2205, 2208
2304, 2282, 2211, 2210
2505, 2659, 2935, 3331
2294, 2289, 2259, 2250
2223, 2252, 2286, 2273
2282, 2300, 2312, 2284
2624, 2728, 2843, 2999
5060, 4631, 4125, 3735
2331, 2318, 2294, 2280
2237, 2249, 2271, 2259
2293, 2282, 2291, 2246
2394, 2331, 2263, 2286
2256, 2260, 2256, 2245
2718, 2848, 3058, 3238
3156, 3308, 3482, 3777
3313, 3132, 2977, 2823
2345, 2394, 2471, 2594
2288, 2260, 2264, 2302
2233, 2266, 2246, 2235
2217, 2176, 2158, 2233
2268, 2226, 2261, 2252
2212, 2195, 2273, 2260
2203, 2192, 2196, 2182
2222, 2216, 2211, 2230
2200, 2171, 2172, 2180
2250, 2262, 2273, 2256
2309, 2284, 2295, 2304
2217, 2184, 2166, 2220
2281, 2200, 2222, 2221
2211, 2202, 2225, 2251
2264, 2300, 2390, 2421
2935, 2901, 2811, 2713
2273, 2265, 2252, 2209
2216, 2212, 2226, 2272
2189, 2241, 2207, 2218
2180, 2231, 2201, 2167
2234, 2215, 2238, 2213
2288, 2307, 2329, 2332
2192, 2225, 2225, 2259
2258, 2233, 2250, 2267
2166, 2204, 2219, 2228
2258, 2220, 2183, 2212
2212, 2206, 2194, 2176
2153, 2158, 2153, 2171
2197, 2161, 2155, 2172
2229, 2174, 2156, 2205
2154, 2169, 2191, 2232
2210, 2189, 2195, 2172
2177, 2165, 2225, 2244
2204, 2216, 2167, 2151
2209, 2197, 2213, 2186
2223, 2187, 2200, 2204
2301, 2322, 2306, 2292
2252, 2241, 2224, 2221
2190, 2245, 2277, 2249
2216, 2187, 2146, 2151
2250, 2266, 2276, 2277
2487, 2489, 2453, 2503
3127, 3062, 3048, 2965
2351, 2397, 2364, 2326
2201, 2143, 2177, 2208
2200, 2208, 2205, 2154
2178, 2196, 2182, 2169
2229, 2159, 2100, 2195
2165, 2195, 2260, 2267
2208, 2241, 2224, 2199
2246, 2230, 2223, 2196
2190, 2207, 2247, 2221
2193, 2230, 2205, 2154
2302, 2307, 2308, 2321
2224, 2245, 2254, 2269
2332, 2378, 2419, 2424
3482, 3582, 3550, 3399
2499, 2508, 2531, 2461
2249, 2205, 2260, 2304
2175, 2183, 2157, 2163
2214, 2242, 2226, 2189
2205, 2228, 2236, 2239
2202, 2196, 2166, 2204
2221, 2276, 2260, 2290
3031, 2947, 2754, 2626
2244, 2263, 2233, 2260
2319, 2272, 2223, 2220
2447, 2464, 2481, 2503
2297, 2324, 2293, 2263
2164, 2165, 2250, 2268
2186, 2186, 2205, 2195
2126, 2212, 2226, 2216
2206, 2197, 2183, 2143
2167, 2228, 2254, 2214
2168, 2191, 2213, 2194
2189, 2198, 2215, 2220
2153, 2178, 2170, 2184
2172, 2213, 2169, 2176
2198, 2164, 2204, 2224
2185, 2179, 2129, 2167
2224, 2252, 2272, 2257
2399, 2427, 2505, 2542
2943, 3066, 3143, 3217
2580, 2624, 2572, 2541
2419, 2434, 2412, 2366
2242, 2270, 2284, 2281
2278, 2319, 2316, 2331
2948, 3000, 3034, 3009
2525, 2493, 2505, 2433
2250, 2252, 2274, 2221
2161, 2223, 2206, 2173
2155, 2220, 2240, 2207
2236, 2162, 2203, 2208
2224, 2221, 2220, 2205
2244, 2237, 2219, 2227
2353, 2375, 2339, 2254
2195, 2207, 2167, 2136
2268, 2217, 2188, 2246
2177, 2188, 2146, 2228
2255, 2242, 2233, 2281
2249, 2225, 2200, 2232
2208, 2205, 2192, 2192
2176, 2142, 2196, 2160
2296, 2327, 2254, 2239
2157, 2260, 2211, 2258
2241, 2286, 2280, 2228
2236, 2245, 2175, 2175
2214, 2195, 2183, 2179
2175, 2197, 2252, 2200
2180, 2210, 2206, 2213
2181, 2239, 2238, 2243
2278, 2295, 2193, 2240
2429, 2385, 2393, 2386
2311, 2274, 2326, 2298
2228, 2226, 2211, 2271
2179, 2232, 2151, 2207
2277, 2284, 2210, 2167
2272, 2246, 2230, 2181
2205, 2198, 2157, 2139
2151, 2197, 2202, 2167
2245, 2238, 2255, 2285
2279, 2176, 2189, 2187
2161, 2286, 2245, 2339
2357, 2350, 2307, 2294
2256, 2222, 2173, 2201
2178, 2196, 2188, 2178
2155, 2129, 2176, 2120
2266, 2188, 2174, 2262
2187, 2192, 2170, 2231
2201, 2143, 2229, 2237
2235, 2192, 2256, 2289
2189, 2261, 2197, 2174
2145, 2171, 2180, 2245
2213, 2227, 2130, 2244
2185, 2132, 2163, 2183
2069, 2156, 2214, 2232
2177, 2228, 2220, 2236
2177, 2228, 2282, 2251
2142, 2222, 2341, 2208
2297, 2275, 2301, 2306
2331, 2239, 2314, 2322
2195, 2152, 2147, 2166
2147, 2085, 2157, 2156
2202, 2215, 2193, 2155
2239, 2185, 2207, 2251
2197, 2320, 2246, 2177
2286, 2243, 2263, 2252
2263, 2195, 2255, 2309
2275, 2199, 2186, 2234
2198, 2143, 2178, 2150
2213, 2236, 2194, 2194
2236, 2158, 2197, 2226
2188, 2261, 2252, 2340
2373, 2245, 2303, 2258
2280, 2200, 2200, 2187
2207, 2163, 2211, 2255
2213, 2260, 2202, 2148
2162, 2126, 2185, 2260
2244, 2170, 2131, 2088
2205, 2165, 2145, 2195
2173, 2183, 2212, 2208
2148, 2177, 2218, 2234
2155, 2167, 2154, 2175
2259, 2251, 2237, 2235
2320, 2333, 2343, 2273
2334, 2266, 2275, 2319
2247, 2216, 2309, 2283
2274, 2239, 2212, 2225
2263, 2255, 2274, 2222
2156, 2156, 2156
*END

*EOF